time,seconds_elapsed,z,y,x
1762759286540085500,1.16408544921875,0.1047697035074234,0.0599210924774408,-0.0856977771602571
1762759291565323000,6.189322998046875,-0.0467570749998092,-0.0743131904453039,-0.1511165172059088
1762759306643619300,21.267619384765624,0.0243710556685924,0.009147767573595,-0.0011689707141369
1762759326743271400,41.367271484375,0.0175415019094943,0.0026023279855027,0.0051626799928024
1762759346839289900,61.46328979492188,0.0120300450116395,0.0048266164388507,-0.0044278994448482
1762759366935090400,81.55909033203125,0.0168956052213907,0.0038921120677143,0.0158313369907438
1762759387030697200,101.654697265625,0.0235153156220912,-0.0040884018247947,-0.0138860116092488
1762759407126201000,121.750201171875,0.0066401686668395,0.0034905089968815,-0.009539726033248
1762759427221647400,141.8456474609375,0.0061105918347835,0.005737520738691,0.0004387567434459
1762759447317046000,161.9410458984375,0.0099456399530172,-0.0042284678826108,-0.0058722895668819
1762759467412424400,182.0364245605469,0.0061316346228122,0.0064198404470458,0.0053488502146676
1762759487507782000,202.13178198242187,0.0265098212629556,0.0118803708752617,0.0007206789573654
1762759507603124200,222.22712426757812,0.0066612114548683,0.0060783335329964,0.0043364948343485
1762759527698461400,242.32246142578128,0.0325309812486171,-0.0183399222781881,-0.0170943426638841
1762759547793793800,262.4177937011719,0.0171153854519128,0.0017686901729553,-0.0148719173740595
1762759567889134600,282.5131345214844,0.0177606976181268,0.000723309305869,-0.0107440237890928
1762759577936814000,292.56081396484376,0.0063981766045093,0.0286400382246822,0.0099734047427773
1762759587984484900,302.60848486328126,-0.0043944355666637,-0.0154691891474649,0.0025077450372278
1762759608079848700,322.7038486328125,0.0233943195909261,-0.0130209922777488,0.0005362257685512
1762759613103687200,327.7276872558594,-0.0038420623809099,-0.0013653335364535,-0.0127702323870733
1762759628175207000,342.79920703125,0.0234036719411611,0.0066302317947149,-0.0075881170414388
1762759648270557200,362.89455712890623,0.0194710086673498,0.0127831649338826,-0.0003291954217478
1762759668365884200,382.9898842773438,0.0095586864620447,0.0150111066490411,-0.0034437472457066
1762759688461200600,403.08520068359377,0.0143599492639303,-0.0013464827055111,-0.0004236322395503
1762759708556502000,423.180501953125,0.0165156659930944,-0.0047252018909901,0.0082195468127727
1762759728651795000,443.275794921875,0.016093056666851,0.0031094737900421,-0.004650310023874
1762759748747081000,463.3710810546875,0.0200584531664848,-0.0113011096825823,-0.0089086981207132
1762759768842361300,483.466361328125,0.0037695816665887,0.002261040267162,0.0045313963519409
1762759788937636900,503.56163696289065,0.0081453125327825,-0.0062098144255578,0.003425188675709
1762759809032945700,523.6569455566406,0.0294932209879159,-0.007676562509872,0.0075139558266848
1762759829128355000,543.7523549804688,0.0112006084501743,0.0141971599176526,-0.0065206704730167
1762759849223711000,563.8477109375,0.0125099374830722,-0.0055587666383013,-0.0117581692676991
1762759869319035400,583.9430354003906,0.01475216345191,0.0020882409835234,-0.001920008277148
1762759889414376000,604.0383759765625,0.0195662857353687,0.0067475745640695,-0.0042439942453056
1762759909509680600,624.1336806640625,0.0061667059361934,0.014648191620782,-0.0031008886247873
1762759929605006800,644.2290068359375,-0.0013531681746244,0.0092587902000173,0.0024469912933185
1762759949700308000,664.3243078613282,-0.0026408698976039,-0.0094222006008028,-0.0066162032693624
1762759969795590100,684.4195900878906,0.0235059632718563,0.0019385668471455,0.000608596885018
1762759989890859000,704.5148588867188,0.0079255323022603,-0.0143560037411749,-0.0052978872124105
1762760009986122500,724.6101225585937,0.0092979896992444,-0.001223769641295,-0.0101339655993506
1762760030081379300,744.7053793945313,0.0126309335142374,0.0047292204789817,0.0010163374356925
1762760050176657400,764.8006574707031,0.0164566292822361,-0.0121554614895954,-0.0092358477158471
1762760070271925200,784.8959252929687,0.0114274029433727,0.0015690759476274,0.011315905392915
1762760090367179500,804.9911794433593,-0.000218026664853,-0.0023472937785089,0.0003221446264535
1762760110462423000,825.0864230957031,0.02950432690382,0.0087803590333089,-0.0163712525537237
1762760130557664300,845.1816643066406,0.0071878656774759,-0.0028707696633413,-0.0017544059192761
1762760150652899000,865.2768991699219,0.0085877956032752,0.010040880488418,0.0082144322462379
1762760170748133600,885.3721335449219,0.0161532624214887,-0.0026385318100452,0.0020518544958904
1762760190843416600,905.4674165039064,0.0116465986520051,-0.0123874436145648,0.007977737413533
1762760210938671400,925.5626713867188,0.0176940621227025,0.0058674307286739,0.0001357186762616
1762760231033908500,945.6579084472656,0.009833996272087,-0.0056419148771092,-0.0015613675652071
1762760251129150700,965.7531506347656,0.0156388831585645,-0.0074789941111579,-0.0092242668759077
1762760271224381700,985.8483815917969,0.0006716156512498,0.0008547536658123,0.0077783789165318
1762760291319602700,1005.9436027832032,0.0168541041672229,-0.0140089438691735,-0.0035102000780403
1762760311414828500,1026.038828613281,0.0103097970902919,0.0025125308101996,-0.003863251299411
1762760331510054000,1046.134053955078,0.0142500591486692,0.0066280763702467,-0.0008808379551395
1762760351605266700,1066.2292666015626,0.0083516487598419,0.0035932387189939,-0.0072297685904428
1762760371700485600,1086.3244855957032,0.0077577745199203,0.0026289602641016,0.0008383505202829
1762760391795710200,1106.4197102050782,0.0188239429354667,0.0036803324805572,-0.0140660808838903
1762760411890921700,1126.5149216308594,0.0132487731516361,0.0026697306659072,-0.0079866148397326
1762760431986123300,1146.6101232910155,0.0082680621296167,0.0036120164847001,-0.0055051002223044
1762760452081319400,1166.7053193359377,0.010652911439538,0.0012839023306965,-7.27364426478e-05
1762760472176517000,1186.8005170898437,0.0129079968899488,-0.0197996195672079,0.0111694826595485
1762760492271773200,1206.8957731933594,0.0111298813015222,-0.0096210841737687,0.0067705901134759
1762760512367021800,1226.9910217285155,-0.0088759648948907,0.0085808544058352,-0.0003904606223106
1762760532462240800,1247.0862407226562,0.0118359837442636,-0.0081745386272668,-8.30386409536e-05
1762760552557446700,1267.1814467773438,0.0024099837511777,0.0107670028058812,-0.0070266472337767
1762760572652646700,1287.2766467285155,0.0133615858763456,-0.0154246193533763,0.0057938905684277
1762760592747841300,1307.3718413085935,0.0100169516235589,0.0046046442512422,-0.0006824658388271
1762760612843029200,1327.467029296875,0.0255167185723781,-0.0033251623673364,0.000376724357903
1762760632938229500,1347.5622294921875,0.0106084877759218,-0.0081850234886631,-0.0066920084519311
1762760653033458200,1367.6574582519531,0.0214694890081882,-0.0010412161486223,0.0006849135242402
1762760673128657700,1387.7526577148435,0.0086567691862583,0.0050938890729099,0.0046909342952072
1762760693223842600,1407.847842529297,0.0119721773445606,0.0112953009963035,0.0055474415266886
1762760713319021800,1427.9430217285155,0.0041039281874895,0.0142504610074684,0.00618701807186
1762760733414205200,1448.038205078125,-0.0027560207098722,0.0030281156495213,0.0146611607002094
1762760753509426400,1468.1334265136718,0.011447276687622,0.010404087777622,-0.005762472516857
1762760773604628500,1488.2286284179688,0.0156868139535188,-0.0024774594968184,-0.0180821846574544
1762760783652233000,1498.2762329101563,0.0048088615864515,-0.0058458764839917,0.0079261533567681
1762760793699861800,1508.3238618164062,0.0070657006025314,-0.0048242052860558,0.0076694751819595
1762760813795095300,1528.4190952148438,0.0140320324838161,-0.0052393619582056,-0.0082555679742246
1762760833890295300,1548.514295410156,0.0044558103650808,0.0022941753517836,0.0107102676499634
1762760853985486300,1568.609486328125,0.0163613522142171,0.0130236591588705,-0.0143363126600161
1762760874080742100,1588.7047421875,0.0084802435755729,0.0047732422837987,-0.0034869653329253
1762760894175971000,1608.7999711914065,0.0102934304773807,-0.0010631722521036,0.009199753489159
1762760914271173000,1628.895173095703,0.0187999775379896,0.0125197282247245,-0.0031810777215287
1762760934366358000,1648.9903579101565,0.0128583125293254,0.0069025459300726,0.0037198242407292
1762760954461534000,1669.085533935547,0.0066062663972377,0.0111657197998836,0.0101360844912007
1762760974556704500,1689.1807045898438,0.0061485857576131,0.032146256247349,0.0253346400037407
1762760994651878400,1709.275878417969,0.0178659115582704,-0.0058912499956786,0.0155612148124724
1762761014747052800,1729.371052734375,0.0143488433480262,-0.0080971990747377,0.0064072001611813
1762761034842248000,1749.466248046875,0.0206271929651498,0.0011154504286125,-0.0119276440830901
1762761054937489200,1769.5614892578126,0.0200491008162498,-0.0067317924730479,-0.0029724399395287
1762761075032699100,1789.65669921875,0.032223522734642,0.017372246289812,-0.009458988947235
1762761095127908000,1809.751908203125,0.0055149640291929,0.0067905003903433,-0.0059697585919871
1762761115223131400,1829.847131347656,0.0132803373336791,-0.0031304435128346,-0.0071988619955256
1762761135318329900,1849.9423298339843,0.0142114807039499,0.0042325960684567,-0.0032117651207372
1762761155413511200,1870.037511230469,0.0428442854702472,0.0061479281704872,-0.013142682428658
1762761175508678100,1890.1326782226563,0.0185685068696737,0.0032584172740578,-0.0005489391196519
1762761195603838700,1910.2278386230469,0.0203033678382635,0.0002306669507175,-0.0018608254358172
1762761215699000000,1930.323,0.0148842653989791,-0.0008667728971689,0.0001662599449977
1762761235794162400,1950.4181623535155,0.0145364748746156,-0.0036981238655745,-0.0001362666655331
1762761255889320700,1970.5133208007812,0.0245516729325056,0.0040794148007407,-0.0198471485033631
1762761275984474000,1990.6084741210936,0.0003963058412075,0.0029471593677997,0.0028458544177934
1762761296079621400,2010.7036213378904,0.0197235221236944,-0.0017349340338259,-0.0042228418594226
1762761316174885400,2030.798885498047,0.0200754043012857,0.0053476811708882,-0.0068553457874804
1762761336270167300,2050.894167236328,0.0106646018773317,-0.0051144569369032,-0.0019070391977205
1762761356365419500,2070.989419433594,0.00934358240664,-0.0043059535656124,-0.0031452392231673
1762761376460627700,2091.084627685547,0.0126806178748607,0.0007953516287729,-0.0008050693051889
1762761386508221700,2101.1322216796875,-0.0066407531887292,-0.0042871757999062,0.0258372922962531
1762761391532020700,2106.1560207519533,-0.0861526813209056,0.016330116825737,0.0320353797513991
1762761396555829200,2111.179829345703,0.0145241999149322,0.0178975122729316,0.017451613402646
1762761406603497700,2121.2274978027344,0.0388736282736063,-0.0305375058764591,-0.0282459974057972
1762761411629219600,2126.253219482422,0.0087473700791597,-0.0303612359941005,0.0663613546580076
1762761416653729800,2131.277729736328,0.6364367858409882,0.0209796596646308,-0.0846259832102805
1762761421678299600,2136.302299560547,0.1074269400179386,0.056571197527647,-0.1228910511314868
1762761426702274600,2141.326274658203,-1.1442460227251052,-0.397420670581609,-0.4191474953517317
1762761431726322400,2146.3503225097656,0.7469155146449804,-0.5175730905294418,0.8087555924862623
1762761436750423000,2151.374423095703,0.0075000003665685,0.0013726035274565,-0.0084375734776258
1762761456846699000,2171.470698974609,-0.0123731593608856,0.0050967203508131,-0.0038526385738514
1762761476942721000,2191.566720947266,0.0092243399411439,0.0146333411115221,-0.0005436784226447
1762761497038724900,2211.6627248535156,0.0157195471793413,-0.0039350196276791,-0.0050194903961382
1762761517134670600,2231.758670654297,0.020632453662157,-0.0032441512866877,0.0061286937470547
1762761527182606300,2241.8066064453124,0.0267898072481155,-0.0358116651534102,-0.0652014440331608
1762761532207831000,2246.8318310546874,0.266430922538042,0.3899199395626783,-0.0355382002405822
1762761537231840800,2251.855840820313,-0.0202151050329208,-0.0638116701751947,0.0951630862504243
1762761542255907800,2256.8799079589844,0.0086538465768098,-0.0915574629738926,-0.0687830288469791
1762761547287564300,2261.9115642089846,-0.1552303092002868,0.0034957331612706,0.0141326981130056
1762761552311703800,2266.9357038574217,-0.2285170792073011,0.0116138654261827,0.1678322175494395
1762761560096675300,2274.7206752929687,0.119649292731285,-0.1114084108695387,-0.1159219610375352
1762761565122258000,2279.7462578125,-0.0390244349211454,-0.1323266957357525,-0.3208176156334579
1762761570146699000,2284.7706989746093,-0.3256903362363577,0.0548088640302419,0.2798579748660326
1762761575171249000,2289.795248779297,-0.1721948880046606,-0.0484518962189555,0.0020832908137701
1762761580195885000,2294.8198850097656,0.0014028525352478,-0.0143836224004626,-0.0854471451337449
1762761585220535800,2299.844535888672,-0.0238911631971597,0.0518392005696892,0.0699728231534361
1762761590245170200,2304.8691701660155,-0.1009627124398946,-0.0203705878555774,-0.034093298661895
1762761595271016700,2309.8950166015625,0.8838707469642162,-0.0793377406090497,-0.1452385285506024
1762761600295566000,2314.9195661621093,0.0380453607559204,0.5036757903411984,0.7737592440374195
1762761605320118800,2319.9441188964843,0.0836544347643852,-0.0263818109691143,0.0845986568119376
1762761610344711400,2324.9687114257813,0.1843319005221128,-0.0537894578546285,0.0304179711500182
1762761615369329400,2329.993329345703,0.2787292630970477,-0.2956573092833161,0.0078534169141203
1762761620393992200,2335.0179921875,0.6086573830336331,-0.1132175061181187,-0.2854271167678758
1762761625418681600,2340.042681640625,-0.1144523086100816,-0.0509317303359508,-0.041690631056251
1762761630443364600,2345.0673645019533,0.0186100079238414,-0.0954290437102317,-0.0694436481801793
1762761635468051200,2350.092051269531,-0.2208925756782293,-0.183725459061563,0.1279767568979412
1762761640492733200,2355.116733154297,-0.0640869799852371,-0.2911775335207581,0.1341504770968109
1762761645517375000,2360.141375,-0.4663736491680145,0.4301175099164247,0.1243115854538977
1762761650541980200,2365.1659802246095,-0.1201098959803581,0.0624818828761577,-0.0054946518935263
1762761655567188700,2370.191188720703,0.1470750597953796,-0.026570611539483,0.0068783613368868
1762761660591758600,2375.2157585449218,-0.0142564888894557,-0.2416640359522774,-0.3279761456185951
1762761680690189000,2395.3141889648437,-0.0052519291788339,0.01754486291036,-0.0032936712505295
1762761685714725600,2400.3387255859375,0.7699936078935861,-0.1163508722404018,-0.0113073019613511
1762761690743620600,2405.367620605469,-0.3662397887676954,-0.222577167764306,0.585359399956651
1762761695768121900,2410.3921218261717,0.0172521635740995,0.1579874989539385,-0.1320744745403528
1762761700792641500,2415.4166416015623,0.1691957061886787,-0.5390925561591983,0.0002303746897727
1762761705817188900,2420.4411889648436,-0.7462818929165601,0.001063975969702,-0.3187107064820826
1762761710841748200,2425.4657482910156,-0.4579734850913285,-0.3686564945206046,-0.6902811887532472
1762761715866294800,2430.4902946777343,0.1547889951735734,-0.0589078237816691,-0.0268518761662766
1762761720893353000,2435.5173530273437,-0.1747182690024376,0.0526741900891065,0.2942199699565768
1762761725917892900,2440.5418928222657,-0.001262567281723,-0.058779228965938,0.2096310673536732
1762761730942465300,2445.5664653320314,-0.1366378369331359,0.2830275448128581,0.2855583053994923
1762761735967073800,2450.591073730469,0.0164145437061786,0.0314385098367929,0.0138348659439012
1762761740992978400,2455.616978515625,0.0871323400080203,0.0396598102152347,-0.0223036748100072
1762761746017631200,2460.641631347656,0.035891982114315,-0.0367117740646004,-0.0068462856981903
1762761751042289400,2465.6662893066405,0.0922089126199483,0.0230284088879823,-0.1315875860725529
1762761756072041500,2470.696041503906,0.0014741642057895,-0.0896919613629579,0.1970920133739709
1762761761105638700,2475.729638671875,-0.0815220989108085,-0.0662158087074756,0.3786640937939286
1762761766130446600,2480.754446533203,0.1851566609084606,-0.0356315776124596,-0.1575918872324749
1762761771157745200,2485.7817451171877,-0.0929354733288288,0.0979860347166657,0.082398909144802
1762761776182494700,2490.8064946289064,-0.196271344640851,0.1063660327881574,0.1948368548583239
1762761781210973000,2495.8349729003908,0.0064648120999336,-0.0358133639201521,-0.0251797417029738
1762761786238167300,2500.8621672363283,0.1171188974708318,0.0102159813269972,-0.0078917396305128
1762761791262813700,2505.8868137207032,0.0289800107687711,-0.0527916789889335,-0.022745500293374
1762761796287462400,2510.9114624023437,-0.0173299049854278,0.0113394323989748,-0.0050507805835455
1762761801312175400,2515.9361752929685,0.0052677112698554,0.0127140817530453,0.0127151046663522
1762761821410862300,2536.0348623046875,0.0143973586648702,-0.0086914021082222,-0.0019403204128146
1762761841509014000,2556.133013916015,-0.0294289235800504,0.0041335926733911,0.0063232847373932
1762761861606835200,2576.230835205078,-0.0169534728884696,0.0142085580945014,0.031537659362331
1762761881704456400,2596.3284565429685,-0.0349169996023178,0.0256496973022818,0.0111265203006565
1762761901801942500,2616.425942626953,0.0328629896819591,0.0396883056573569,0.0144894208624958
1762761921899342000,2636.523342041015,0.0291255567193031,-0.0021254677213728,-0.0061864335499703
1762761941996671000,2656.6206708984373,0.0600415039867162,-0.0004902677349746,-0.039714316881448
1762761962093934600,2676.7179345703125,0.0223076933979988,0.005926029048115,0.0196355515792965
1762761982191159000,2696.815158935547,0.0186252054929733,0.0033113165050745,-0.0077954761818051
1762762002288358400,2716.9123583984374,0.0222211841583251,-0.0063620823778212,-0.0186009478345513
1762762022388180200,2737.0121801757814,0.0117629185080528,0.0074351184368133,0.0038384091190993
1762762042485608400,2757.1096083984376,0.0369891297012567,-0.0097276132881641,0.0014530483525246
1762762062582881300,2777.206881347656,0.0330482831209898,-0.0090659345090389,-0.0157666742566972
1762762082680064500,2797.304064453125,0.0042202480435371,-0.0068269234105944,0.0066388534925878
1762762102777191700,2817.4011916503905,0.0109036713302135,-0.0007823825493454,-0.0068345221951603
1762762122874270500,2837.4982705078123,-0.0066068509191274,0.000996755952388,0.0214155668638646
1762762142971311900,2857.595311767578,0.0021551322072744,-0.0067240475580096,0.0063837827529758
1762762158044843500,2872.6688435058595,0.2172773077905178,0.2993044336140155,0.0649932811751961
1762762163069238000,2877.6932380371095,0.3798351833999157,0.0955874491423368,-0.2130886239290237
1762762168093657900,2882.7176579589845,0.1653881305992603,-0.05102642288208,-0.1183300268262624
1762762173118099200,2887.742099121094,0.039707741010189,0.0052618660509586,0.0114943306997418
1762762178142552300,2892.766552246094,0.042885786524415,0.0355213952362537,-0.0473620551556348
1762762183167013400,2897.7910134277345,0.0420271238684654,-0.0078659110695123,-0.0571519200250506
1762762188192107300,2902.8161071777345,0.1312953068614006,-0.0191793322443962,0.0071700377598404
1762762193216577800,2907.840577880859,-1.1139432389199733,0.1265618485987186,0.4866778937891125
1762762198241056500,2912.8650563964843,-0.0002443301498889,0.1153477961450815,-0.0208778797905892
1762762203265550000,2917.889550048828,0.0574357054024934,0.026227497190237,-0.1166118247315287
1762762208290060000,2922.914060058594,0.216883340036869,-0.0134469260722398,-0.173596571496129
1762762213314588200,2927.9385881347657,-0.2009422590613365,0.2688286313295364,0.0347470498628914
1762762218339151000,2932.963151123047,-0.1471118846744298,-0.029826982986927,0.1012124494172632
1762762223363733200,2937.987733154297,0.0512847815573215,-0.0376332728236913,0.01954042064175
1762762228388337400,2943.0123374023437,0.2740957580775022,-0.111870475423336,0.1705743010655045
1762762233412955000,2948.0369548339845,-0.1957394297212362,0.0148556238263845,0.0765972097292542
1762762238437573400,2953.061573486328,0.4890004915177822,-0.0928787747055292,-0.1266889821097254
1762762243462190600,2958.086190673828,0.0641559535682201,-0.2608428932726383,-0.1271957625880837
1762762248486801200,2963.1108012695313,0.0257809224665164,0.0393774861425161,-0.0892269741997122
1762762253512666000,2968.136666015625,-0.2121487127304077,-0.1428770235836506,-0.0909410846412181
1762762258538525000,2973.1625249023436,-0.0528939703196287,-0.0251870482265949,0.0507566660299897
1762762263572541700,2978.196541748047,-0.2288274603307247,0.0266723183482885,0.0097401805087924
1762762268600895200,2983.224895263672,0.0066612114548683,0.010244330638647,-0.1731517503380775
1762762273625476000,2988.249476074219,0.1844002895832061,0.0058376201122999,-0.0472109562471508
1762762278650069200,2993.2740693359374,-0.0775520262360572,0.0226823719292879,0.2437457741297781
1762762283674670300,2998.2986704101563,-0.1218324819892644,0.1495586933046579,0.0001315174251794
1762762288699277800,3003.323277832031,0.6626911710381508,-0.4079372422903776,0.2683756268650293
1762762293723910400,3008.3479104003904,-0.0302057531714439,-0.0077019526794552,0.1610661757469177
1762762298748594200,3013.372594238281,-0.1227946050196886,0.5976800619453191,0.5487617172583937
1762762303773315300,3018.3973154296873,0.1676665969252586,0.0458908135592937,0.0058329439371824
1762762308798063900,3023.422063964844,0.0263964240163564,-0.1434369955539703,-0.4871706457421183
1762762313822833700,3028.4468337402345,0.0941992096543312,0.0502922633886337,0.1625412167355418
1762762318847613700,3033.4716137695314,0.0890636003315448,0.0584761543661355,-0.1137245788574218
1762762323872376300,3038.496376220703,-0.4427566267371177,-0.0860883839130401,-0.0901015650771558
1762762328897156000,3043.521156005859,0.2632400175422429,-0.0147884038090705,0.0242182031944394
1762762333924555800,3048.5485556640624,-0.0288315422087907,0.0011579378634691,0.0711795685946941
1762762338953884400,3053.5778845214845,1.324926415002346,-1.2304027956992387,0.3078773239091038
1762762343980705500,3058.604705566406,0.0037502924442291,-0.0020343553718179,0.0093579716915963
1762762364088427000,3078.712427001953,0.002055178964138,0.0135428241947665,-0.0007291088589932
1762762384187721700,3098.8117216796877,0.0043330607682466,-0.0041485345141962,0.0019350368829211
1762762404286763300,3118.9107631835936,0.0050257192075252,-0.0085961250402033,-0.0093458337292307
1762762424385403100,3139.009403076172,0.0159252988845109,-0.0169662045058794,0.0154852954654721
1762762444483818200,3159.107818359375,0.011182488271594,0.0075230707149021,0.0183457948965486
1762762459557532200,3174.1815322265625,0.0079570964843034,0.0085989745844155,-0.0129286241194466
1762762464582091800,3179.206091796875,0.0091319854825735,-0.0052438737365417,-0.0094897448451025
1762762484680258800,3199.3042587890627,0.00274140766263,0.0048814153660088,0.019271449240949
1762762499753819000,3214.3778188476563,-0.5722480990469455,1.084015352841839,-0.6059154639143497
1762762504778331400,3219.402331298828,-0.4697480940371751,0.6342908598534762,-0.9284126301325856
1762762524876328200,3239.500328125,0.0095686233341693,-0.0010945903036743,0.0056693874059244
1762762544974215200,3259.598215087891,0.0110416184961795,0.0103881504229735,0.0113350119521841
1762762560047574800,3274.671574707031,0.0156511581182479,0.0081309049815172,-0.0052102819941937
1762762565080831200,3279.704831298828,-0.461133994948864,0.1552145271092653,-3.0155066355779767
1762762570105320000,3284.7293198242187,-0.1674567535668611,0.0393617040514946,0.0446229855805635
1762762575129844200,3289.753844238281,-0.1849514937251806,0.0413607689142227,-0.2766952730514109
1762762580154383000,3294.7783830566405,1.5786463245272635,0.4395546158254146,-0.4229378275454044
1762762585178922000,3299.802921875,-0.2593162682272493,-0.1800280658483505,-0.2877972434327006
1762762590203455500,3304.827455566406,-0.186171938898228,-0.2761865928769111,0.1988435332164168
1762762595227978800,3309.8519787597656,-2.8350387170076368,1.3557523458987473,-2.975677314014733
1762762600252485600,3314.8764855957033,-0.0541606292545795,0.005048515561223,0.4317407272040843
1762762605276982300,3319.9009821777345,0.6950560019396245,-0.2736643809229135,0.836120423143357
1762762610301468700,3324.92546875,-0.3201081521898508,0.392834511835128,-0.3427835098564624
1762762615325948400,3329.949948486328,0.0577402413070201,-0.0613485679972916,0.1621755982935428
1762762620350426600,3334.974426513672,-0.0427764809310436,-0.0010700403843075,-0.0019882512077689
1762762625374904800,3339.9989047851564,0.5085054024547339,0.1496370192378759,-0.4039533602859824
1762762630399382500,3345.0233825683595,-0.2616477799147367,1.3035153781831263,-0.5216054147854448
1762762635427633400,3350.0516333007813,0.4396013775765895,0.1024671256534755,-0.3658008128285407
1762762640452146700,3355.0761467285156,-0.0141185417234897,0.0653355918068438,0.0848088654965162
1762762645476687000,3360.100687011719,-0.0085439564615488,-0.0201269883580505,-0.0158025492876768
1762762665574886400,3380.1988864746095,-0.0148240596443414,0.0074141487140208,-0.0214800104022026
1762762680648519700,3395.2725197753907,0.0173404263794422,-0.033113530376926,0.0176019999250769
1762762685673045200,3400.297045166016,-0.0087432784259319,-0.002318579140678,0.0044701311513781
1762762700746564400,3415.370564453125,0.0082587097793817,0.0380493062786757,-0.0245662859797477
1762762705771062000,3420.395062011719,0.0101297643482685,-0.011498568483442,-0.0301288885429501
1762762710795556900,3425.419556884766,-0.0203600664615631,-0.003504208728671,-0.0762459120735526
1762762715820052000,3430.444052001953,0.0443149425446987,0.0726173463128507,0.0194771461471915
1762762725869041200,3440.4930412597655,0.0191489371061325,0.0386011680077761,-0.0229430686920881
1762762730893535500,3445.5175354003904,0.0106149175167083,0.0565522005662322,-0.0814715377673506
1762762735918029800,3450.542029785156,0.0271872821331024,0.0020713263813406,-0.0209586168766021
1762762745967026700,3460.5910266113283,-0.0363595996260643,0.0087940587650984,-0.0020624854877591
1762762766065058800,3480.6890588378906,-0.0403320103883743,0.0272979029007256,-0.0054620647981762
1762762786163118600,3500.787118652344,0.092893972274661,0.0076649816699326,-0.0568579055145382
1762762791187638500,3505.8116384277346,0.0106780458807945,-0.0103311321392655,0.0176551914170384
1762762796212159200,3510.8361591796875,-0.0425941101014614,0.0476039741527289,0.0779503779038786
1762762806261206800,3520.8852067871094,0.0309597864091396,0.0208532568059861,0.0128261638253927
1762762826359323400,3540.983323486328,-0.0515782115459442,0.0159301211901009,0.0627457945093512
1762762846457503500,3561.0815034179686,0.0100210432767868,0.0044130672018975,-0.0111509240895509
1762762851482049500,3566.106049560547,-0.0497293688088655,-0.0048275662869215,-0.0013479074776172
1762762861531146800,3576.155146728516,-0.0169347681879997,0.0100760613996535,0.0219160637319087
1762762866555701200,3581.179701171875,0.0082288991630077,0.0150311995889991,-0.015035656568408
1762762886653938200,3601.277938232422,0.0102940149992704,0.0258989958882331,0.0300309811264276
1762762896703072000,3611.3270720214846,-0.0281587575137615,0.0414758466612547,0.0701145697116851
1762762906752207600,3621.3762075195314,-0.01171206510365,-0.0020538637898862,0.0100903091207146
1762762926850496300,3641.4744963378903,0.0063490767657756,0.0158591017805039,0.0179644034966826
1762762946948831000,3661.5728310546874,0.0039677345871925,-0.0038107904598116,0.0093359836220741
1762762967047199500,3681.6711994628904,-0.0012491232782602,0.0164910430084913,-0.002732055312395
1762762972071794400,3686.6957944335936,-0.0433902289152145,-0.0265333482690155,-0.0201066762223839
1762762977096388900,3691.720388916015,0.0104582656502723,0.0630604864817112,0.0700032182916998
1762762987145582600,3701.769582519531,0.0221668236225843,0.0659081309977918,0.0096291213497519
1762763007243987500,3721.867987548828,0.0038508302092552,0.0174458595152944,0.0010474632263183
1762763022317820200,3736.941820068359,-0.0149666829854249,0.0233780991084873,0.0104901220932602
1762763027342432800,3741.966432861328,0.0041372459352016,0.0113647129707038,0.0002326397120952
1762763037391663400,3752.015663330078,-0.020563480079174,0.0058664078153669,0.0012386018842458
1762763047440897300,3762.064897216797,-0.0059212067425251,0.0170968999471515,-0.0017371990561485
1762763052465517300,3767.089517333985,-0.0021884499549865,0.0351484702706337,-0.0298845583930611
1762763062514761500,3777.1387614746095,0.0268400761306285,0.076123381672427,0.0472545031279325
1762763067539386600,3782.16338671875,-0.1259825874060392,0.0516373943872749,-0.4113035038530826
1762763072564017000,3787.1880168457033,6.434013641566038,-3.673948040217161,-1.3728184853814542
1762763077588650800,3792.212650634766,1.6457120280623434,0.7234205111585557,0.0765244367539882
1762763082613288400,3797.237288330078,-0.0032511107504367,0.2398515431702136,0.4334650667786598
1762763087637925400,3802.261925292969,-0.5546516520798206,-0.8077373553544283,0.3167131029240786
1762763092662562600,3807.2865625,-0.7995438197657465,1.1633207255512474,-0.9767286980774254
1762763097687201800,3812.311201904297,-0.1223006474902853,-0.2664578105449676,-0.3456663352837786
1762763102711843800,3817.33584375,0.1838005701243877,-0.0404950919955968,-0.1580061488554812
1762763107736488700,3822.360488769531,-0.0331856457650661,0.2228963167160749,-0.4531088747296482
1762763112761137000,3827.3851369628906,1.1459246234618126,-0.8294511745125055,-1.3520898778684436
1762763117785783800,3832.409783691406,0.9803379015505314,-1.0575544122219085,-1.8275030119299889
1762763122810431000,3837.434430908203,2.6343606618404385,-2.7458944526553153,-1.2984807450167837
1762763127835075800,3842.4590759277344,1.0853156948506832,-0.9208195446550844,0.7254398881569505
1762763132859722500,3847.4837224121097,0.0032358766486868,0.0094382749527692,-0.0437403575271368
1762763137884367600,3852.5083676757818,0.2234593574263155,0.034357027631998,-0.369331763433665
1762763142909014500,3857.5330146484375,-0.0540928247153758,-0.0484872597932815,-0.0350603535957634
1762763147933659100,3862.557659179688,1.4820295323371886,1.5154600927740334,1.130838186554238
1762763152958304300,3867.582304199219,-0.0154173493623733,0.4578536581039428,-0.0327247502550482
1762763157982950400,3872.606950439453,-0.5486264004409313,0.9670087566390632,0.2648100433379411
1762763163007595800,3877.631595703125,-0.0175391638219356,-0.0550202417585998,0.0554378095835447
1762763168032243000,3882.656242919922,0.0330997210472822,0.1850366512579843,0.0592092178810387
1762763178081547800,3892.705547851562,-0.1249935763686895,-0.0178163459286559,-0.0196903505064547
1762763183106210000,3897.7302099609374,-0.0638134237408638,-0.1523159561235457,0.2943235764615237
1762763188130874400,3902.754874267578,-0.0470721322983503,-0.0056159767182543,0.0420021355576813
1762763193155539000,3907.7795390625,-0.1076654249489307,-0.3095341512054205,0.9173524530664086
1762763198180205000,3912.804205078125,0.060073652690649,-0.8783256800577044,0.932886268415302
1762763203204871200,3917.82887109375,-2.025112911698222,-1.268867843171954,-0.0405541287064552
1762763208229536500,3922.8535366210936,0.5825076272547245,0.1241577100664377,0.2104034034330397
1762763213254200600,3927.8782006835936,-1.7850947797894476,-4.059104126378894,2.48221984308809
1762763218278866400,3932.9028664550783,-0.2670633752226829,-0.0861065040916204,-0.4109945840343832
1762763223303539000,3937.9275390625,0.7567020185135305,-0.7907219231456518,-0.2305173496464267
1762763228328209700,3942.952209716797,0.0133048141878098,-0.0831394709795713,0.0235481949783861
1762763233352881400,3947.976881347656,2.0577780407205224,1.1317775862962007,-2.665645734681189
1762763238377556000,3953.001555908203,6.038700318527221,-0.6022884325236082,-1.7528111974306404
1762763243402239000,3958.026239013672,3.569213408023119,5.688558262601495,-0.9599120033111422
1762763248426938600,3963.050938720703,-3.8671693496376274,-2.079023365584016,0.9519901973359286
1762763253451658500,3968.0756584472656,2.132576384334266,-1.8958727838009597,-0.8514888918627053
1762763258476392000,3973.100391845703,-4.791003858199716,-9.662661215782164,-1.019202688930556
1762763263501161200,3978.125161132813,2.124525472086668,1.916295394104719,5.568592159005999
1762763268525979000,3983.1499787597654,0.6011655659735202,5.305736172345281,4.719015895831585
1762763273550853400,3988.174853271484,4.933173610296845,0.2918295676887035,-0.2304075691290199
1762763278575755300,3993.199755371094,-4.318752841430903,-0.5536515351265668,1.98424518699795
1762763283600649500,3998.2246494140622,0.5454735624331981,-1.4361363806903362,-0.0016367343563586
1762763288625522200,4003.249522216797,-2.630712076205015,-6.213554781129956,1.883558807281405
1762763293650370800,4008.2743708496096,2.135532603791356,7.289568979150056,-2.152615402147919
1762763298675194600,4013.299194580078,-0.8965987111121415,-2.315595740953088,1.9988415753662585
1762763303700007000,4018.324006835938,0.7222904842153192,-3.864319220903515,0.5981619637107476
1762763308724801800,4023.348801757813,0.2074853970944881,2.5834002899318933,-1.9489561392128467
1762763313749573400,4028.373573486328,-7.686485061210393,-4.102586125230789,4.374941469381749
1762763318774320400,4033.3983203125,-3.8456858321040865,-6.563005347660184,1.5176958890020846
1762763323799050500,4038.423050537109,0.2158741629943251,4.773982580772042,1.865257280784845
1762763328823781000,4043.4477810058593,0.558466862986423,-1.38549457321167,-0.8610746855273842
1762763333848513500,4048.472513427734,3.4718197862416504,-1.370941731724143,-0.7873909520920366
1762763338873249500,4053.4972495117186,-6.5714943590641015,6.117917647626996,1.8222665725812317
1762763343897991700,4058.5219916992182,-1.4172515013478697,-0.2157686567932367,-3.5058617565751073
1762763348922737200,4063.546737060547,-0.1164054885044693,5.569991504409909,1.8347443613603711
1762763353947480000,4068.5714799804687,-1.0106770718432962,-5.639449656039476,0.5078066065356135
1762763358972214500,4073.5962145996095,0.1828682577103376,-0.925087723493576,0.9000034780543297
1762763363996932400,4078.620932373047,1.1915869620274753,0.1523445246309042,-1.2839372558794917
1762763369021634000,4083.6456340332034,-1.5613430152878165,-2.7109593328744173,0.8295558039307593
1762763374046322000,4088.670322021485,1.0370118288002907,-0.1846937195718288,0.2604574741516262
1762763379071009300,4093.695009277344,1.045934701576829,1.0162146860957144,-2.173203578276932
1762763384095695000,4098.719695068359,0.7935942637115716,0.3278103971302509,0.1050853453278541
1762763389120379400,4103.744379394531,-1.7624577083066104,-1.5743267077624796,0.802495363047719
1762763394145057300,4108.769057373047,-1.0498632731974125,2.563644619104266,-3.591412088088691
1762763399169719800,4113.793719726563,-5.73312162694931,-2.100859349817038,1.1089603359408675
1762763404194376700,4118.818376708984,0.7109726791262626,0.8363157995849847,-0.4831352527461945
1762763409219037700,4123.843037597656,-0.0122702835083007,-0.0247089093208312,-0.0872721868701279
1762763414243704600,4128.867704589844,-0.0538192684710025,0.8414227673351764,0.260743670681864
1762763419272154600,4133.896154541016,0.6784662477970123,0.3703630061775446,0.2104112214133143
1762763424297024800,4138.921024658203,-0.1698643992304802,-0.0008463876962661,-0.0940718569476157
1762763429322240000,4143.946239990234,-0.2676251007586717,0.0380436071902513,-0.1371118111204355
1762763434347734300,4148.971734375,-0.031304069802165,0.0346241541355848,-0.0987400679543614
1762763439373404000,4153.997403808594,-0.3224111684352159,0.0194032041281461,-0.0877040024161338
1762763444402978300,4159.026978271484,-0.3056330521136522,-1.6281693571090696,-0.3403856549344957
1762763449429001700,4164.053001708984,0.1384592071413993,-2.51665782700181,-0.283623611009866
1762763454455121200,4169.07912109375,0.6088339086443185,-0.090661683177948,0.0453023461468517
1762763459481159400,4174.105159423828,0.3317418913602828,0.5434399377137422,0.3719318629294633
1762763464507114000,4179.131114013672,0.3710468967884778,-0.2981608165368438,-0.2214911626258865
1762763469534244600,4184.158244628907,2.149458837813139,0.4751888237863779,0.7952185769777744
1762763474561948400,4189.185948486328,-1.6364900262087585,0.6052297466725111,0.0594755041344091
1762763479590199800,4194.214199707031,0.653511254760623,-0.0502197826743125,0.2757323463033884
1762763484617086200,4199.241086181641,-0.3553548221379518,-0.1561936012744903,0.2739764973456971
1762763489652036600,4204.276036621094,0.2914776855111122,-0.9117001263931394,-0.2763158452797681
1762763494679367200,4209.3033671875,0.0046504561543464,0.0462441570416092,0.0602120747806504
1762763499704735500,4214.328735595703,-0.0276186592876911,0.6402332555145025,1.790618511646986
1762763504730704000,4219.354703857422,1.5620983636997638,1.5893594417214392,0.8498027654066681
1762763509756716000,4224.380716064453,-0.2739385947544127,-1.0864116733938456,0.8434373220279813
1762763514782074600,4229.406074707032,2.2986972131222485,-0.0053057051926851,-2.1083010441251098
1762763519807374600,4234.431374511719,-3.4167201225712893,1.367569624942541,0.238206844703108
1762763524832605700,4239.45660571289,-8.801825307446718,0.1818055969148874,3.2082398692205545
1762763529857771500,4244.481771484375,-0.0003144727766513,-0.890724850642681,0.7854595456380397
1762763534882878000,4249.506877929687,2.988696077802777,3.794464763432741,-3.5112364353507757
1762763539907934200,4254.531934326172,-5.146548065429926,-5.057526550674438,0.3118654802298173
1762763544934214100,4259.558214111328,0.7600584893345832,0.4290928430438041,0.8099024974990635
1762763549959270100,4264.583270263672,0.393169296747446,-0.0768669665813446,-0.6672196082480252
1762763554984363000,4269.6083630371095,-0.347377851909399,-0.2038251210212707,-0.2206345823291689
1762763560009496800,4274.633496826172,0.1949959178775548,-1.779779868377,0.4308265349686145
1762763565034660400,4279.6586604003905,-5.548052644324303,-4.206995178732276,2.1882588163286445
1762763570059886300,4284.6838862304685,0.5088532660443336,-1.7053139715880157,-2.9992654026120897
1762763575085129500,4289.709129394531,-5.569324564933776,-0.2079980227917432,-0.3408320835277438
1762763580110332200,4294.73433227539,-6.078237379145622,14.605808523082732,4.972123810938
1762763585135484000,4299.759483886719,2.2649983571380377,-0.1525765798211097,0.0736341586725786
1762763590160586200,4304.78458618164,-3.914897023235261,-0.0078898764669895,-2.1216782659620046
1762763595185645600,4309.809645507812,-0.745416800519824,-1.5542612403333187,-0.5192336441528052
1762763600210672400,4314.834672363281,11.233403635317089,12.873589593434334,-0.0033493834931403
1762763605235672800,4319.859672851562,-5.237288074541092,8.177599183881282,2.981637683723867
1762763610260649000,4324.884648925781,-2.395261836733669,-2.0982781011521814,3.687812607179582
1762763615285595400,4329.909595458985,1.759812454494834,-4.954475341522693,1.8005109601080416
1762763620310510800,4334.934510742188,1.056483714250475,5.815190253826976,-3.509614387106895
1762763625335405600,4339.9594055175785,-10.355137284231184,-4.165165038740635,4.099780127899349
1762763630360279800,4344.984279785156,-6.5497594971179955,-4.408301010408997,1.5050307609573006
1762763635385141200,4350.009141357422,2.323919478792697,-0.0863221926689147,-1.0102750669136642
1762763640409994200,4355.033994140625,-2.0053078487709164,-3.480302952426672,2.096418590890616
1762763645434837800,4360.058837646485,1.153397151299566,6.236110896331072,-3.382475323142111
1762763650459674600,4365.083674560547,-6.238412743532657,5.628250216633081,1.847314504598081
1762763655484503600,4370.10850366211,-2.741309462952614,1.4102338776707648,-0.0035921153409872
1762763660509324000,4375.133323974609,-2.178056571266055,3.070254417070746,-0.9716855162784456
1762763665534134800,4380.158134765625,-7.849725658386945,-2.13925483918488,1.0220765638664364
1762763670558932000,4385.182931884766,4.267594316601753,-0.6260241128981113,-1.9558127271093424
1762763675583717600,4390.207717529297,-0.178820443624258,-0.0567898087143897,0.2462433996317908
1762763680608497700,4395.232497558593,0.0036713797058328,-0.0277191970527172,-0.0790159521756228
1762763685633275400,4400.257275390625,0.39980128210783,-0.1225298166036605,-0.2593016551800072
1762763690658058000,4405.282058105468,0.0525999558091163,-0.1095470009118318,0.3625535745356231
1762763695682849300,4410.3068493652345,-0.0599310293495655,0.0291565363794565,-0.0411029034293256
1762763700707647700,4415.3316477050785,0.0134283675022423,0.002172667863965,-0.0016506898164749
1762763705732447500,4420.3564475097655,-0.0324652225360274,-0.0147188457041978,-0.0427349798768758
1762763710757239000,4425.381239013672,-0.174047822394967,-0.2749970908313989,-0.3494023434743285
1762763715782022100,4430.406022216797,-0.0116565537904389,-0.0264566297709941,0.0295217164300382
1762763720806793000,4435.43079296875,0.0465851890316233,0.0224111537724733,-0.0615152298010885
1762763725831547400,4440.455547363281,-0.2094096431553363,0.0327712197452783,-0.1815260493211448
1762763730856293000,4445.4802932128905,-0.0498959575474262,0.0021194763720035,0.0487856582179665
1762763735881026300,4450.505026367187,-0.0614735643501393,-0.0165729491382837,0.0375567004561424
1762763740905745700,4455.529745605469,0.220137994451262,0.287382525151968,-0.2457207274645566
1762763745930454000,4460.554454101562,-0.367722282410413,-0.0979179379165172,-0.5004469644878059
1762763750955157000,4465.579156982422,0.011848258703947,0.0453594831615686,0.3481945751197636
1762763755979854600,4470.603854492188,-0.1966062756836414,0.3829819569930434,0.1113233629345893
1762763761004544800,4475.628544677735,0.0436222841054201,1.8187047884464265,-0.6118868664741516
1762763766030500900,4480.654500976562,0.0418219566851854,-0.0406038130670785,-0.2142890126947313
1762763771055876600,4485.679876708984,-0.3371481343179941,-0.0279568052008748,0.072617282380769
1762763776080678000,4490.704677978516,0.1238806466907262,0.0916945333570241,0.1029851216455921
1762763781105559600,4495.729559570313,-0.2916302457243204,0.1160977377295494,-0.1689035913743078
1762763786133114600,4500.757114501953,-0.0209819977521896,-0.0321335063636302,0.0031391748085618
1762763791158335700,4505.7823356933595,-0.0418657958269119,0.063259004728496,-0.0332338688209652
1762763796184249000,4510.808249023437,1.061706855726242,1.6284432056143878,-0.2390047901477664
1762763801209529300,4515.833529296875,0.0382025971442461,-0.0737637033363804,-0.1138610099197365
1762763811260840400,4525.884840332032,-0.0113473234444856,0.0117497667655348,-0.0256642372842878
1762763826336541400,4540.960541503906,0.0261480022132396,-0.0443939260650426,0.0542152455186471
1762763831361627100,4545.985627197266,-0.0068728083789348,0.0181904308049008,0.0064416504200547
1762763841417286400,4556.041286376953,-0.6577981382995843,0.2738894218504428,0.5509012500377372
1762763846442887000,4561.066886962891,-0.179584998255968,0.1205588087916374,-0.0479676289665047
1762763851467878400,4566.0918784179685,0.0389390947252511,-0.0419935138598084,0.0100493925884366
1762763856502914600,4571.126914550781,-0.0843389098972082,0.0566264348462223,0.103347269488871
1762763861528514000,4576.152514160156,-0.5063292274594307,1.2307982247576117,1.535731896430254
1762763866553465600,4581.177465576172,0.6467138497054576,0.2504345311786979,-0.669616440256685
1762763871579671300,4586.203671386719,-0.0246299988657236,-0.0134172250537201,0.0246618142095161
1762763891695068700,4606.319068603516,-0.0183849669963121,0.0115142044439911,0.0552471778156934
1762763911794568700,4626.418568603515,-0.0036555998980998,-0.0060576195385307,0.0109795039122458
1762763921844214500,4636.468214599609,-1.04705172290802,-0.4132701277509331,0.397529830044508
1762763926869021000,4641.493020996094,-1.0356418556213378,0.4485977539807558,0.2961264611650258
1762763931896396300,4646.520396240235,-0.0293470905154943,-0.0244192787244915,-0.0372354691451415
1762763936922601000,4651.546601074218,0.1075602110087871,0.0544382771521806,-0.0960807856172323
1762763941947592700,4656.571592773437,-0.5189198289632797,-0.1113435289397835,-0.0139709499463438
1762763946980147500,4661.604147460937,0.0939075332313776,0.5312123243033886,-0.3615001930251717
1762763952005172000,4666.629171875,-0.0012672434568405,-0.0526633764341473,-0.030902064872533
1762763957030178600,4671.654178466797,-0.0445674560010433,-0.0172159232169389,-0.2390454144190996
1762763967080752400,4681.7047524414065,-0.0486468342691659,-0.0788579212028533,0.0265946682685054
1762763972109475600,4686.733475585937,0.0005441898792982,-0.0138686951482668,0.0079666725968243
1762763992213053000,4706.837052978515,0.0040782092243432,0.0004095306489616,-0.002011370646808
1762764012312895500,4726.936895507813,0.0091021748661994,0.00525335395094,0.0084014404350309
1762764022371415600,4736.9954155273435,-0.3028127339959144,-0.1692003823637962,-0.0741207731457427
1762764027396255700,4742.020255859375,-0.0791857649177312,0.0665261898308992,-0.0416927042823284
1762764032421150500,4747.045150390625,0.1398088681846857,0.1224307401433587,-0.1367525493539869
1762764037446097400,4752.070097412109,1.1066618497401477,0.2648696645706891,-0.2679871390040964
1762764042471075000,4757.095074951172,-0.6030038873165845,0.3679699735611677,0.0013011457264423
1762764047496078600,4762.120078613281,0.3936006739020347,0.1415419755876064,0.0514578000366687
1762764052521106000,4767.145105957031,-0.1141483572274446,0.4302209702908992,-0.1311421621263027
1762764057549302300,4772.173302246094,0.1335316876113414,0.0412637382805347,0.0050096448555588
1762764062575626500,4777.199626464844,-0.0171276604115962,-0.0251548995226621,0.02163856196478
1762764067600742100,4782.2247421875,-0.1209077683597803,0.0351098918259143,-0.0919447817910462
1762764072625901800,4787.249901855469,-0.0420955129295587,0.0123299047410488,-0.0042960166934877
1762764077659846700,4792.2838466796875,0.0109527711689472,0.0105617260247468,-0.0069189125429838
1762764082684964000,4797.308964111328,0.392758962380886,-0.0059404959648847,-0.0416627840681001
1762764087710038500,4802.3340385742185,0.0718856710374355,0.025953356423974,-0.0609018106104806
1762764092737597000,4807.361596923828,-0.1772387273907661,0.0361088397353887,0.1290719317235052
1762764097763881000,4812.387880859375,0.0274462253302335,0.0416857630848884,-0.0043687166035175
1762764102792666600,4817.4166665039065,-0.1001163247436285,-0.005317103369534,0.0588199993677437
1762764107818972400,4822.442972412109,0.0079366382181644,0.0175227972090244,-0.0209949211658444
1762764112844052200,4827.468052246094,0.4242927492856979,0.2818503177270293,-0.2423158874571323
1762764117869137700,4832.493137695313,-0.0768389095306396,0.0154343004971742,0.0228043178085237
1762764127920543000,4842.54454296875,-0.1044289272457361,0.1009568672209978,-0.025738836890459
1762764132946841900,4847.570841796875,-0.0873649797201156,0.0464659830987453,-0.0033906653515994
1762764137981941200,4852.605941162109,-0.079023852354288,0.0247439806342124,0.0652101022636517
1762764143007001600,4857.6310017089845,0.06139584120512,-0.1131748360201716,0.1088806459575891
1762764148032127000,4862.656126953125,0.2275333288669586,0.0932373788848519,-0.1465674025341868
1762764153057320400,4867.6813205566405,1.94050103007853,2.114331410330534,0.94166008810997
1762764173157792800,4887.78179272461,0.0127735568553209,0.0289017579007893,0.0095687922975281
1762764193257574000,4907.88157397461,-0.0016606266885995,-0.0064991892935708,-0.0063871985527686
1762764203307299000,4917.931299072266,0.0086193597853183,0.0108726186048239,0.0009130049253813
1762764213356931300,4927.980931396484,0.0020095862567424,0.0077720587735995,0.0057526406760094
1762764233455979800,4948.079979736328,0.004237199178338,0.0038654797891154,0.0131714153327979
1762764243505410300,4958.129410400391,5.138507966837286,2.7061130618870255,-1.0228037090972066
1762764248532001500,4963.156001464844,0.0452466704368591,0.0361421574831008,0.0118903442800045
1762764253556758300,4968.180758300781,-0.1465922447144985,-0.0348641003713011,0.0217266786396503
1762764258584069400,4973.208069335938,-0.0293336465120315,0.2517033090054988,-0.0469144575186073
1762764263608890000,4978.232890136719,-0.1867956602871417,0.1208200900763273,-0.2412078896826133
1762764268636243200,4983.260243164063,0.0258615864872932,0.085411507564783,0.0446340914964675
1762764273661100000,4988.285100097656,0.8119453284382819,0.0929617768138647,-0.7443333161320537
1762764278685996800,4993.309996826172,-0.9109224200189112,0.2212023722797632,0.4991273332566022
1762764283710957800,4998.334957763672,-1.2392413511931897,-0.0878390269726514,-0.6005727877121418
1762764288736619800,5003.360619873047,-0.9114783003360032,0.1620594245679676,-0.3857306711792945
1762764293761708500,5008.385708496094,1.3246955288559197,0.2021984696675091,0.5548787753665819
1762764298788079600,5013.412079589843,0.5250508790642022,-0.145899294014275,-0.0659061947690323
1762764303814488300,5018.43848828125,-1.337686527854204,-0.0372848977774381,0.5781780736178159
1762764308840342800,5023.464342773437,2.4194696646645664,2.56347715358287,2.8955069219738245
1762764313865740800,5028.489740722656,1.7003063725590706,1.115637183356285,-1.9089244269452987
1762764318891278000,5033.515278076172,0.53187754674647,2.109243147280812,-1.72502784910053
1762764323916803600,5038.540803466797,0.7962152598649263,-4.05784272814095,0.4441057397911325
1762764328942252000,5043.566251953125,1.3016589366614817,-0.7898211749136448,-0.9006069238401949
1762764333967621000,5048.59162109375,9.168232853996754,18.358647144663333,-5.144857628124952
1762764338992923000,5053.616922851563,-2.627741535961628,-3.552979481580853,0.6989262675017118
1762764344018173000,5058.6421728515625,0.7057751104831695,-1.5016501786082983,-0.3284272138543427
1762764349043383000,5063.667383056641,-8.6711203676939,1.718203848299384,4.706086563892662
1762764354068561200,5068.692561035156,1.294373455828428,-0.1660048011928796,-1.4840595768600702
1762764359093710800,5073.7177109375,1.414827050679922,0.7420704127013683,-0.3019469109468162
1762764364118859500,5078.74285961914,-4.866813424682617,4.215339813229441,2.447372986112535
1762764369144002600,5083.768002441407,-4.2739375481486315,3.8407629887491463,4.4847249093979595
1762764374169122800,5088.793122802735,-1.7383698534935712,-4.49604417579174,1.4407342298746109
1762764379194841300,5093.818841308594,-0.6352011065661907,0.1127408285170793,-0.6487307424858212
1762764384220543200,5098.844543212891,0.0699105715721845,-0.0037152211308479,-0.0843062314703129
1762764389245642000,5103.869642089844,-0.5808008233368397,0.2918973722279072,0.2789385219335555
1762764394270828500,5108.894828613281,0.3769686880528927,-0.3740937171384692,-0.2210914592511951
1762764399296179700,5113.9201796875,-2.484319737976789,0.5382186959341169,-0.9817725374635308
1762764404321743600,5118.9457436523435,2.509613169187307,2.476454703690111,-0.9258148687243462
1762764409347376600,5123.971376708984,-0.7518763519227504,-2.125271322017908,1.521511063376069
1762764414372978700,5128.996978759766,0.6390490141659975,0.8331973753035068,0.4526977366454899
1762764419398517200,5134.022517333984,0.0353121363997459,0.215967686496675,-1.3287152858912945
1762764424423978200,5139.047978271485,-6.75611501339972,0.7698596062503754,0.8652263983793557
1762764429449368800,5144.073368896485,-0.3193015119820833,0.8601504102893173,-0.1243451954625546
1762764434474697700,5149.098697753906,0.4994119954168796,-0.1426853004038333,-1.4373530630037188
1762764439499976400,5154.1239765625,-1.6769588147193193,1.1214140131920576,1.4951631546765565
1762764444525219000,5159.149218994141,3.870250949040055,1.215137422028184,-0.7593598395459353
1762764449550450700,5164.174450683594,-4.447882494691014,-0.3963245459079742,0.8641084272000938
1762764454575667500,5169.199667480469,2.044982564294338,0.3381622797966003,-0.5434291240587831
1762764459600865500,5174.224865478515,-10.885866793453692,1.8858800898358223,0.1047818688692525
1762764464626059500,5179.250059570312,-3.92522231015563,-5.165322908526659,4.501719298818707
1762764469651240400,5184.275240478516,-1.5446538924239577,1.6108312688171862,-0.421821390736103
1762764474676460500,5189.300460449219,-6.4018012247473,-5.992740531384944,3.0254578284889457
1762764479701691100,5194.325691162109,3.3320822297275066,0.2017734491884708,-0.3093151746924966
1762764484726895400,5199.350895263672,5.21360441661477,0.5185860669642687,-0.7935202486272901
1762764489752062000,5204.376062011719,3.8498651636153456,0.3698813601404428,-0.1786420183174312
1762764494777190400,5209.401190429688,-10.318822108268735,-1.816974603652954,-3.0479180821001526
1762764499802293000,5214.42629296875,-0.5430363253489137,5.6912494013816115,2.7510207096278667
1762764504827375900,5219.451375976562,-0.5577297443509102,-2.3466262545108796,2.652357214041054
1762764509852440300,5224.4764404296875,-5.798150856220722,-4.996177471220493,1.87558958196789
1762764514877488000,5229.501488037109,1.0358452692389488,-0.543384408134222,-1.797310118240118
1762764519902523600,5234.52652368164,-0.2799181806206703,-3.359332640224695,2.064418940039724
1762764524927549400,5239.551549560547,2.80629309951663,-1.406647251355648,-1.2590486060775816
1762764529952569300,5244.576569335937,4.064191512645781,5.613045633238554,0.8106204365100711
1762764534977583600,5249.601583496094,-1.0106839399755,3.998542982432246,-1.0475387757726011
1762764540002594300,5254.6265942382815,2.2205536507338284,1.3258055359244345,-3.185510443279147
1762764545027604200,5259.651604248047,1.2959785529375076,-2.5105484042108057,1.1459009503252804
1762764550052621000,5264.67662109375,-6.365373820582032,-5.804902084046602,2.2162166444428264
1762764555077646000,5269.701645996094,-9.964452205514908,-1.7391040129870174,0.3312329189248383
1762764560102671400,5274.726671386718,3.6484488573014735,-0.0663537558734417,-0.1717058623787015
1762764565127691300,5279.75169116211,-4.96966238926053,-2.3913451016813516,1.8258928002543744
1762764570152703700,5284.776703857422,-6.672138507074117,-5.453887921461463,1.7815829722762109
1762764575177731600,5289.801731689453,-0.391634342265129,-1.121450838071108,-1.1419982437983154
1762764580202774800,5294.8267749023435,9.322383551266787,4.49887793791294,-4.608361225938797
1762764585227823600,5299.851823730469,-8.979578414100407,-6.317985461941361,1.4811930815130472
1762764590252872400,5304.876872558594,-3.905852716036141,2.5750907267481087,0.0773742585163563
1762764595277921500,5309.90192163086,6.093604459625483,6.077912384974956,-6.066909929445385
1762764600302970600,5314.926970703125,-1.1893991696596145,-2.365567686346173,0.295337393146567
1762764605328023800,5319.952023925781,6.972278806990385,3.3600387426674363,-2.9315929653555153
1762764610353078000,5324.977078125,-2.728994755780697,-3.341971171057224,1.2259420168980957
1762764615378153000,5330.002153076171,4.744771099334955,4.094119325658679,-5.9367415807873005
1762764620403267300,5335.027267333984,1.0212060646422207,-2.109651728081703,-0.575622836177051
1762764625428396000,5340.052395996094,-11.954193944102524,1.1990636545836926,1.5055825496211648
1762764630453532200,5345.077532226563,2.2654314878582955,1.6673089428424834,-2.3171258731298146
1762764635478652400,5350.10265234375,-3.6788182766020294,-6.460167488998175,2.512592184998095
1762764640503745300,5355.127745361328,-7.644021884012222,2.1159639799684284,0.9711801971048116
1762764645528823800,5360.152823730468,-2.0085189197719098,2.9418372959941625,3.365793360671401
1762764650553898200,5365.177898193359,9.669648590451478,18.74577131602764,0.687691172260046
1762764655578972200,5370.202972167969,-3.375037574356794,-3.0750615250915287,4.917843354696035
1762764660605299500,5375.229299560547,0.5214689289242029,2.247097374266386,-0.7255591306224465
1762764665630382800,5380.2543828125,-1.831441520422697,2.421359423933923,-1.405773683391511
1762764670655508000,5385.27950805664,-0.0279477451115846,1.108775773154199,-2.139087373663485
1762764675680662300,5390.304662353516,-0.4632259987920522,-0.8512906658768653,0.1232072409411892
1762764680707072500,5395.331072509765,-6.461295031723379,-6.994732630860805,0.393273268578574
1762764685732238000,5400.3562380371095,0.097692604728043,2.6957828065305947,3.698638829359412
1762764690757410000,5405.38141015625,7.023174296969175,5.503256055742502,-4.739073472215235
1762764695782564600,5410.406564697266,-0.9518062190711498,-1.6063661061018704,-0.2630923526998609
1762764700807690000,5415.431689941406,-11.2125291895926,4.539364846602082,4.42331883905977
1762764705832780300,5420.456780273437,-2.5184122694537043,5.124128728350997,2.0879383473150432
1762764710857841200,5425.481841064453,1.0197358459591863,-3.244235603970289,0.250632099577412
1762764715882885000,5430.506885009766,-13.263202659004929,2.4076287124842404,4.235309126807749
1762764720907916300,5435.531916259765,-2.744911579097807,6.0462967650055885,1.1187637909442183
1762764725932931000,5440.556931152344,4.233927609321475,0.8797995520025491,-2.017136672122031
1762764730965474600,5445.589474609375,1.90247437402308,0.3792839792579412,-1.4409819210253656
1762764735990483200,5450.614483154297,5.1754906667977565,-0.2542722827106714,-4.428201058143377
1762764741015488800,5455.639488769531,0.3101658732376992,1.972698833850026,-0.7978112968847155
1762764746040499500,5460.6644995117185,8.637878607827425,0.684992434695363,1.278831749434024
1762764751065497600,5465.689497558594,-8.460109134560822,-5.94440816989243,1.47425013050735
1762764756090484000,5470.714483886719,-6.224658943468332,5.4858688676118845,1.7329507510542868
1762764761115453000,5475.739452880859,7.215524084252118,5.341461565721034,-4.25925348149687
1762764766140394800,5480.76439477539,-2.000249104076624,2.276917342990637,-4.638227956414222
1762764771165307600,5485.789307617188,3.4851071378380056,-0.8552753515988588,-1.2372262119784951
1762764776190194000,5490.8141938476565,4.814987375855446,20.128217023062703,14.37268599590659
1762764781215061200,5495.839061279297,8.481869715470076,1.6495950069755314,0.1735503942668438
1762764786239933000,5500.863932861328,-0.850664642933011,7.051433592247963,1.192045446384698
1762764791264799200,5505.888799316406,3.4437118821322916,-0.6432049648016691,-0.5670234232012182
1762764796289647400,5510.913647460938,11.305512593716385,1.7483078946620223,-1.7229583493500946
1762764801325779700,5515.949779785156,0.3663321432262659,0.3243570418059825,0.1015241457149386
1762764806350642400,5520.974642333985,-0.0987795597145333,-0.0293880070477724,0.0404678751951083
1762764811375796500,5525.999796386719,0.0068470894157886,-0.1084179329498205,0.0025315643042325
1762764816401261600,5531.02526147461,0.1460544845759868,-0.0612473132796352,0.0146118781983852
1762764821426903600,5536.050903564453,-0.3935726168513297,-0.4583209833547472,0.3418006362989544
1762764826452613600,5541.076613525391,0.51151510566473,-0.4082403168901801,-0.1588010438265278
1762764831478540800,5546.102540771484,1.9655787727117535,-0.0089537063062191,0.4110261847490444
1762764836504680700,5551.128680664063,-1.1228045907676218,0.457868271151185,-0.3296712956313044
1762764841530862600,5556.1548625488285,0.8725105640381574,0.2585375389397144,-0.5386871902287006
1762764846557010000,5561.1810100097655,-1.1103326472073791,-0.6114568044938147,-1.468492882154882
1762764851583166700,5566.207166748047,-0.9014110798299312,-0.6772282304346561,0.2099829495312646
1762764856609463800,5571.233463867187,-0.0475192915439605,-0.800412127032876,1.0176689765572546
1762764861635848000,5576.259847900391,8.515289169991016,8.75597716398537,1.9376880184844136
1762764866662201900,5581.286201904297,0.5257599041163921,-1.7159616223305465,-0.9658336484450848
1762764871688439000,5586.312438964844,-6.6100318872511385,3.0117735865294932,2.227600062114
1762764876714572300,5591.338572265625,-0.0734188719540834,-5.281655624055862,0.9774858000550418
1762764881740622600,5596.3646225585935,1.6070587645411492,0.8334235852748155,1.3063698908314108
1762764886766569700,5601.390569824219,2.6440479431182147,0.7704910360217094,-0.3973730320475995
1762764891792391700,5606.416391601562,-4.179366874833405,2.2896055596500635,0.0206485645467415
1762764896818093300,5611.442093261719,-12.205912450677156,-6.036216100496054,1.598205595999956
1762764901843687400,5616.4676875,0.4085018904358148,3.355289502313733,-4.409476483929157
1762764906869195000,5621.4931950683595,-1.527330563309789,-6.863422126430272,1.5557158230558037
1762764911894644200,5626.518644287109,-0.7812135055661201,-1.9391683201700447,0.3341034328598529
1762764916920059100,5631.544059082031,-1.771004295116663,4.600480701822042,1.9230993750311431
1762764921945444900,5636.569444824218,-2.671158652883768,-9.589984102106094,-3.355651613624394
1762764926970810400,5641.594810302734,-0.6669510204397141,1.1888491345614194,-1.5853111892439424
1762764931996155100,5646.620155029297,3.9735844822645183,3.6551293579787014,2.0689279418967663
1762764937021481200,5651.645481201172,2.2561562945127487,1.4386287820279595,-1.03862174821496
1762764942046781200,5656.67078125,-0.9697941495738924,5.065205414739251,-6.575213671848178
1762764947072049400,5661.696049316406,1.8975062302216887,1.3748568593412638,-1.2435283808626234
1762764952097288000,5666.721287841797,0.2780465415298938,3.122936790466309,-1.3376007492668929
1762764957122502400,5671.746502441406,-2.2844344406224786,-2.234331416195631,2.877705892345309
1762764962147695900,5676.771695800781,-0.571469515889883,-1.870392305585742,0.517377348761633
1762764967172866600,5681.796866455078,1.536891587859392,-0.0671171414613723,-1.4284279982700945
1762764972198023700,5686.8220236816405,-9.126825323331357,6.659788728588819,4.455381618274748
1762764977223168500,5691.847168457031,7.356209150749445,4.237410775262117,-4.248320876333117
1762764982248304600,5696.8723046875,3.575219954961538,1.357502404436469,-2.4033555652096865
1762764987273435600,5701.897435546875,0.1770718463912606,4.788270633843541,1.1119000426545738
1762764992298572500,5706.922572509766,1.992531077045202,-4.562618296417594,0.9390949137970804
1762764997323693600,5711.947693603515,-12.601251492679118,-7.057528401991725,3.405912897352874
1762765002348809000,5716.972809082031,1.4223083463460209,-0.1414642341762781,-0.0713072135623544
1762765007373945600,5721.997945556641,2.9742513728648423,3.236476660406589,-1.6300456723749637
1762765012399105000,5727.023104980469,-2.8035727346420285,4.0181420013934375,0.3287273658446967
1762765017424265500,5732.048265380859,-4.161217177897692,-2.5139374621272084,0.9072671854469924
1762765022449415400,5737.073415527344,-0.481792459835112,-4.064592202401161,0.6993281263008714
1762765027474553900,5742.098553955078,3.191441294632852,11.23499938007593,4.5280952645689245
1762765032499678500,5747.123678466797,0.5423085955962539,-1.7609242151290176,-0.3128240961289033
1762765037524786400,5752.1487863769535,-1.2091326286554336,-0.1785416266828775,0.4961961751755326
1762765042549883100,5757.173883056641,-1.176709199434519,-1.0673007302105426,0.651923620242998
1762765047576222000,5762.200221923828,0.6957020447582006,1.3680249674946068,-0.3410240989685058
1762765052601316600,5767.225316650391,0.2195499288976192,0.083401044525206,-0.039811521045072
1762765057626491400,5772.250491455078,-0.155832366746664,0.1257172144681215,-0.0939895398258697
1762765062651766800,5777.275766845703,0.1960691000670194,0.1257256900355219,-0.068601041609887
1762765067677124900,5782.30112475586,0.0026648352950811,0.0140495681405067,-0.0320054230045527
1762765072702528500,5787.326528564453,-0.0377986925184726,0.0636623248323798,-0.0699579726441763
1762765077727946200,5792.351946289063,1.1860381687939163,0.3326706966429948,-0.678920859696716
1762765082753412900,5797.377412841797,-0.2900274867027997,-0.7637973836019635,-0.2042513836093246
1762765087786476500,5802.4104765625,-0.0645335547089576,0.2785433851361275,-0.4269955054383724
1762765092812011800,5807.43601171875,0.5937275249272584,-0.1030269514933228,-0.0642473581787198
1762765097837526000,5812.4615261230465,-0.9419038337379694,0.1650640132114291,-0.1071200660258531
1762765102862999800,5817.486999755859,-0.3494090654760599,0.0770905462041497,-0.027096005386766
1762765107888435700,5822.512435791015,-0.2330085454076528,-0.0174006321340799,0.1271134180668741
1762765112913843200,5827.537843261719,-0.4458347190082073,0.6395958343937993,0.17669526816383
1762765117939228400,5832.563228515625,1.1323872426271435,0.7692144402146339,-0.1537502997756004
1762765122964593000,5837.588593017578,0.0583703559041023,-0.0193853762105107,-0.1546891880609095
1762765127992461600,5842.616461669922,-0.0363625222355127,0.0193839149057865,-0.0341261414855718
1762765133019089000,5847.6430888671875,-0.5743237362772226,0.2452241761192679,-0.7455617619484662
1762765138044470800,5852.668470703125,0.1094189906179904,0.165664609453082,0.0719954880874604
1762765143069862000,5857.693861816406,0.1240454818636178,0.0678127225100994,0.0493716414123773
1762765148095323400,5862.719323486328,-0.0658393766105175,0.0515562919750809,-0.017656433526054
1762765153120915200,5867.744915283203,0.1365308694273233,0.0652931409046053,-0.0227887549132108
1762765158146593500,5872.770593505859,-0.0205108731091022,-0.0117000824049115,-0.0356502823129296
1762765163174199800,5877.798199707031,0.040666356909275,-0.0286120542392134,-0.0120731535010039
1762765168199909600,5882.823909667969,-0.0285188229978084,0.053863107612729,0.0432347460925579
1762765173225583000,5887.849583007813,0.0933820480525493,-0.0433528195142745,-0.0256499164979904
1762765178251214600,5892.8752145996095,-0.4553220937997102,0.0187383104786276,0.159747932755202
1762765183276814600,5897.900814697266,-0.3774713768780231,0.005097030878067,0.3993122564818709
1762765188302404400,5902.926404296875,0.0219271696478128,0.0129416068986058,-0.0582873720620758
1762765193328066800,5907.9520668945315,0.0110626612842082,0.0357680634737014,0.0049217839090153
1762765198353809200,5912.977809082031,-0.0734814157962799,0.0848997586503624,-0.0014375824969785
1762765203379648300,5918.003648193359,0.0471224011808633,0.0641676440060138,0.0047036293799988
1762765208405512000,5923.029511962891,-0.0096627313584089,-0.0343804085075855,0.0283297940985765
1762765213431359000,5928.055358886719,-0.4737456392407417,0.0340349560707807,-0.1277250471591949
1762765218457175600,5933.08117553711,-0.5115770649850369,0.0042824996247887,0.0807152760399505
1762765223483008800,5938.107008789062,0.2301934879869222,0.0522553801551461,0.3243400906711816
1762765228508906500,5943.132906494141,-0.2973953851222992,-0.0598503653287887,-0.0217450728128664
1762765233534859800,5948.158859863282,1.309903617915511,0.3527241813734174,0.6976112393803894
1762765238560848600,5953.184848632813,0.0622848989993333,-0.0691457246795296,-0.3401953199941664
1762765243586846500,5958.210846435547,-0.0250578688889741,0.0083797058105468,-0.0043228681677952
1762765248612902700,5963.236902587891,0.2122515885829925,1.1231281236335635,-1.5187031663484871
1762765253640264200,5968.264264160156,0.6872369987517595,1.2769815915226936,0.679192223984003
1762765258673904000,5973.297904052734,0.7558177830249071,0.9737143917575478,-0.4289249391309916
1762765263702504200,5978.326504150391,-0.3276554988294839,-0.4639271327987313,-0.0792082690104842
1762765268730462000,5983.354461914062,1.2817799317151308,0.0413055315956473,-0.623837124247849
1762765273757770000,5988.381770019531,-1.4218927512824535,-0.3523196922257542,-0.7859362232390791
1762765278785674500,5993.409674560547,1.855637804046273,1.4495835990235209,-1.2704444448389112
1762765283811653400,5998.435653320313,1.619655795785785,-0.7979948367580771,-0.4925210668593645
1762765288837595000,6003.461594970703,1.469022166725993,1.5760039933249352,1.1927598782643676
1762765293870406000,6008.49440600586,-0.4268769205600023,0.9447028168067336,-0.4336875504229217
1762765298897483800,6013.521483886719,1.9905425335764884,1.129214457809925,-0.9467781617760658
1762765303933300200,6018.557300292969,-0.4617839832901954,0.7621195135176181,0.7221988604091107
1762765308959659800,6023.583659667969,2.6887369796723126,0.860112854757905,-0.9925216758191584
1762765313985378000,6028.609377929687,-1.7212480383008717,0.8466656364247203,-1.2106963708408176
1762765319011087000,6033.6350871582035,0.4093587995260954,-1.2830059663787483,1.217875687885657
1762765324036781600,6038.660781494141,-1.904454149663448,-0.8491910632491111,1.4673206235051155
1762765329064977000,6043.68897680664,2.2022633762836454,0.7637392236739396,-0.9467802076026796
1762765334091894300,6048.715894287109,-1.3419699042618274,-1.5201079185798765,0.6054637015588581
1762765339119407400,6053.7434074707035,-1.0635480996787547,-2.2352888630509375,-0.6898239465050399
1762765344144996900,6058.768996826172,-1.6429913709267974,0.0026338556349277,0.8461649934262037
1762765349171845600,6063.795845703125,0.4607400271952152,0.0325958631783723,0.2606581843554973
1762765354197558300,6068.821558349609,0.1957987586930394,0.1280173081040382,0.0172597326759132
1762765359223459000,6073.847458984375,-0.958716948307678,-0.946063291504979,1.3797598289519548
1762765364250635800,6078.874635742188,0.380697937709093,0.8006213858693838,-0.552039350689575
1762765369276538600,6083.900538574218,-0.6865934401512146,-0.4907686702340841,-0.2899755373198538
1762765374302488300,6088.92648828125,1.2312941915810107,1.0441735371232033,-0.0664133953724987
1762765379328492300,6093.9524921875,0.0310451266050338,0.0366679349228739,-0.0225340494997799
1762765384354449400,6098.97844946289,-0.8431722413510083,0.0780842334166169,0.0425542164824903
1762765389380313000,6104.0043129882815,-0.2082914527803659,0.0099257662087678,-0.0702465255282819
1762765394407980800,6109.031980712891,-0.0135182377427816,-0.0171478264167904,0.0806784876935183
1762765399433695200,6114.0576953125,-0.3773959735542536,0.2150885655745864,-0.2714463395472616
1762765404461873200,6119.085873046875,0.2234720707774162,0.1300400461032986,-0.1385115218505263
1762765409487507700,6124.1115078125,0.3568646421790122,0.1409232591673731,0.0685020199485123
1762765414513128200,6129.137128173828,-0.0506938299268484,0.0017038813084363,0.0043877135649323
1762765419539997200,6134.163997070313,-0.7658569464802741,-0.3060208823874593,-0.3015438465712591
1762765424566219500,6139.1902194824215,0.5770633903741836,-0.365666080532968,0.1552737647495232
1762765429600568600,6144.224568603516,0.4511790026456117,0.1323898240998387,-0.1593716467887163
1762765434627327700,6149.251327636719,1.1317618042051791,0.8151280501276255,0.0405778018429875
1762765439654031400,6154.27803125,-1.5176584796011447,1.021823758149147,0.3764584735084325
1762765444679428900,6159.303428955078,-0.3678980773687362,-1.0524705330863595,-0.6902496245712041
1762765449708594400,6164.332594482422,0.409171167999506,-1.1941790974125266,0.4243082391157746
1762765454735883000,6169.359883056641,1.8216583775550128,1.5641875910639762,-1.0085323148995635
1762765459761901600,6174.385901611328,-0.5807397407993674,3.4802123515337704,1.7562933404579757
1762765464787382800,6179.4113828125,6.344809755980968,5.224216411522031,-1.4194944579690694
1762765469813553400,6184.437553466797,-0.8070531724825502,3.11843772548139,3.5943390814512965
1762765474839067100,6189.463067138672,1.838045448732376,-3.2691835827440023,1.9498697469264268
1762765479864516400,6194.488516357422,2.4253997853659093,0.950365957134962,-4.029447823783755
1762765484889914000,6199.5139140625,-3.505908810587227,-1.2455980267435312,0.736550480236113
1762765489915306000,6204.5393059082035,0.9534089780926704,0.0104155955523252,0.3362422715194523
1762765494940693000,6209.564692871094,0.885359524217248,2.1071663410067556,-1.4860186019733548
1762765499966039300,6214.59003930664,1.7633043882638215,-1.3615192388623951,0.2897955776430666
1762765504991336400,6219.615336425782,1.016555900748819,-0.1089233160555362,-0.9588745500221848
1762765510016586800,6224.6405866699215,-0.4101004116736352,0.4730044654846191,1.0286972241152077
1762765515041796000,6229.665796142578,-1.1521996120780706,-0.4240624476611614,0.0776747758328914
1762765520066966000,6234.690966064453,4.0626685408622025,3.314405703261494,-1.5622715283095836
1762765525092093000,6239.716093017578,0.2881961796224117,-1.2537906855493783,0.9819083657376468
1762765530117208300,6244.741208251953,-0.2813113885447382,0.0395978508949279,-0.0412215431066229
1762765535142532400,6249.766532470703,0.0337511706933379,-0.0692342797458171,-0.0879162569273263
1762765540168100600,6254.792100585937,0.039081133544445,0.0760889679461717,0.0046529951713047
1762765545193825800,6259.817825683594,-0.3161667210876941,-0.4777227261781692,-0.510289984316565
1762765550219596000,6264.843595947265,0.0330143808513879,-0.8675251768410205,0.0170295155330561
1762765555245568300,6269.869568359375,1.0546072528541088,-0.4379606246322393,-0.329988617952168
1762765560271732000,6274.895731933594,1.2164344761013983,0.1129731759682297,-1.0693874733567237
1762765565298018800,6279.9220187988285,3.215467774647474,0.7416910579949617,-3.4738702890306707
1762765570324349000,6284.948348876953,2.734848742505908,4.952251820254325,-2.2780006081826984
1762765575350617000,6289.9746171875,8.01484373987317,3.1944968828111886,-3.596455050691962
1762765580376769500,6295.00076953125,-2.728117680685222,0.9899094474941492,0.8060456028752029
1762765585402842400,6300.026842285156,-3.0580042995676395,-1.292021924266219,0.4037908632006496
1762765590430087700,6305.054087646485,-1.1138257500201465,1.4729972078368068,-0.2891554531086236
1762765595456002600,6310.080002441407,0.7921089935898781,0.7842085957288741,0.7112830602496862
1762765600481918700,6315.1059187011715,-0.1412567289054393,-0.4599225733324885,0.3158861505806445
1762765605507851000,6320.1318510742185,-0.2628869663208723,-0.1167697917722165,-0.1457656576972454
1762765610535694000,6325.159694091797,0.0146750065624713,0.02302344045192,-0.0330675723433494
1762765615561627400,6330.185627441406,0.1338788936138153,0.1652475530847907,-0.6307346286766231
1762765620587533600,6335.2115334472655,0.0564472788870334,0.0161038703218102,0.1096219658441841
1762765625613408800,6340.237408691406,0.0180190562933683,0.0563899957418441,0.0102148122832179
1762765630639232500,6345.263232421875,0.5364817891389131,-0.019410802912712,-0.2236504230190068
1762765635665001000,6350.289000976562,0.1741962909549474,0.0773854374974966,-0.0558599257194437
1762765640690709000,6355.314708984375,0.0474129085600376,0.0672808075904846,0.0348881023013964
1762765645716353000,6360.340353027344,-0.007219429859519,0.1204623626798391,-0.0682546210587024
1762765650745789200,6365.3697890625,0.0503776035845279,-0.0434907666802406,0.0207830228476785
1762765655771510000,6370.3955100097655,0.238933259281516,-0.0179039054811,-0.1422091342594474
1762765660797217300,6375.421217285157,-0.121126379546523,0.1380634858220815,0.118471261927858
1762765665822902300,6380.44690234375,0.3282552182883024,0.3022434096753597,0.3428577806690707
1762765670848572200,6385.472572265625,0.0444908836334943,0.0025239655196666,-0.0137970957833575
1762765675874284000,6390.498283935547,-0.5138046779066324,0.1521142230063676,0.1065657748776487
1762765680900021200,6395.524021240234,0.0757709880381822,0.0138075760781764,-0.053400074944552
1762765685925724200,6400.549724121094,-0.4370014242112636,-0.1590448990523815,-0.0720995695164427
1762765690951993300,6405.575993408203,0.5010463186204434,0.1025999582529068,-0.0100175361454486
1762765695980074200,6410.60407421875,-0.0725643009513616,0.0968506009459495,-0.3173085845991969
1762765701005569000,6415.629569091797,0.0034434184521436,0.0784545280337333,0.1094371107965707
1762765706030997500,6420.654997558594,0.021257307562232,0.05800152259171,0.1102982576705515
1762765711056376300,6425.680376220703,0.0595224485486745,0.0002320551902055,0.0028778935238718
1762765716081720300,6430.7057202148435,-0.0400040936082601,0.0690975016236305,-0.0359343599513173
1762765721107047200,6435.73104711914,0.84848437628448,-0.0897568432927131,0.1167475799404084
1762765726132390100,6440.756390136718,-0.0286649534702301,0.0355509135916829,-0.0384591291885823
1762765731157778000,6445.781777832031,-0.575684503236413,0.0193409525468945,0.0931678207799792
1762765736183175700,6450.80717578125,0.1422510006397962,0.0423015568956732,0.0794740803398191
1762765741208567000,6455.832567138672,-0.029826982986927,-0.0408969507947564,-0.0624626667190343
1762765746233940500,6460.857940429688,-0.056464814543724,0.1579243705898523,0.2810012996822595
1762765751259281700,6465.883281738281,0.0442073905169963,0.0466843020245432,0.0378393898550421
1762765756284616400,6470.908616455078,-0.0051128129690885,-0.0064253568723797,-0.1215644056376069
1762765761309949200,6475.93394921875,-0.5557096367001533,-0.1959028035894036,0.8246445048831402
1762765766339046400,6480.963046386719,0.0930196444809436,-0.0367100204989314,-0.0183767836898565
1762765771364362200,6485.988362304687,0.7911445324718952,-0.1384559922710061,-0.2753269803728908
1762765776389658400,6491.013658447266,0.1199357084572315,0.010526070189476,0.0076461308389902
1762765781416193500,6496.040193603516,-0.0765296974509954,-0.1877972385451197,0.0515623563896864
1762765786441458700,6501.065458740234,-0.0735100573688745,0.0055994274422526,0.0748411598421633
1762765791466769000,6506.090768798828,0.084695468249917,0.0618266338378191,0.0455345474675297
1762765796492208000,6511.116208007813,-0.0557663108855485,-0.0277346868827939,0.0579439471855759
1762765801519046700,6516.143046630859,0.1295148531854152,0.0149780811622738,-0.0200365335956215
1762765806544729300,6521.1687292480465,0.0167816234529018,-0.0645297553166747,-0.0152905811775475
1762765811570514400,6526.194514404297,-0.0079524203091859,-0.0677972326800227,0.0602849573537707
1762765816596371700,6531.220371826172,0.3345236310333013,0.0217649648234248,-0.2013980034722015
1762765821622260500,6536.2462604980465,-0.0124269353747367,0.0247214765414595,0.0041378030576277
1762765826649386000,6541.273385986328,-0.1697737983375787,0.367156319090724,0.0021278058089315
1762765831675237600,6546.299237548828,-0.2401338672429323,0.2347410682886838,0.0558272472925484
1762765836701194800,6551.325194824219,-0.4090262065708637,0.0605260726332664,-0.0390425550997257
1762765841727247000,6556.351247070313,0.0079091656893491,0.1634776208028197,-0.0160059629052877
1762765846753321500,6561.377321533203,0.1563204425245523,-0.1678773170664906,-0.134450994413346
1762765851779394800,6566.403394775391,0.0857218886882066,0.0020677461847662,-0.1902924894269555
1762765856805457200,6571.42945703125,0.0630927082508802,0.1524225583031773,0.1848086511883884
1762765861831480600,6576.45548046875,0.0426718515127897,-0.0028325930774211,-0.0222721836932003
1762765866857455900,6581.481455810547,-0.1096644898116588,-0.0648471507027745,0.0392418770641088
1762765871883395300,6586.507395263672,0.1116232226639986,-0.0156894443020224,0.0932367578303441
1762765876909338000,6591.5333381347655,0.0161199446737766,0.0737836136132478,0.1011852326167747
1762765881935271400,6596.559271484375,-0.0383498966604471,0.0200268889844417,0.0574363903890829
1762765886961242600,6601.585242675781,3.1679630961507557,0.747475778876245,0.0772423757649958
1762765891987325400,6606.611325439453,0.873123142978549,0.8776260073557496,-0.9971199633948504
1762765897013402000,6611.637402099609,2.494792616674304,0.8127046223729848,-1.4107231224924326
1762765902039400200,6616.6634001464845,-5.184278953409194,-1.9102245497584345,1.2959239001408218
1762765907065297200,6621.689297119141,0.5756365724414587,-0.1968357005253434,0.998087785513699
1762765912091093500,6626.715093505859,0.3934422684699297,0.1694324375540018,-0.6243523802936076
1762765917116801800,6631.740801757813,0.9020406099051236,1.4828107458427549,-1.4265306402161717
1762765922142436900,6636.766436767578,2.7734944072425365,2.91821209025681,-0.9501320022486148
1762765927168007200,6641.792007080078,-5.359901477774978,-1.0505191067576407,1.2997569024324416
1762765932193531100,6646.81753125,1.0882879886597394,1.0023498268723487,-0.4935096395052969
1762765937221535500,6651.845535400391,-0.1061351466417312,-0.7787918313771486,-0.107213589528203
1762765942247096800,6656.871096923828,1.203905833917856,0.5777852749079465,-0.2299038573905825
1762765947272708900,6661.896708984375,1.358054777622223,2.6948364655911923,-1.155438082542643
1762765952298286300,6666.922286376953,-0.8650804140374064,-3.1883260852217674,1.695284745004773
1762765957323816700,6671.94781665039,-1.6059014111995695,2.2268103730410336,-0.1369721834540367
1762765962349292500,6676.973292480468,-5.158849913120269,4.552807096499205,4.1743823644191025
1762765967374711000,6681.9987109375,0.4656454810239374,4.7563019626528025,-3.8297774843543766
1762765972400092700,6687.024092773438,1.945190064677596,0.6983715562283992,0.062213733459264
1762765977425450000,6692.0494499511715,1.9306214410990477,-1.2362877620846031,-0.4966449053237214
1762765982450788000,6697.074788085937,-2.330615615430474,2.1733464938789604,-0.2577211079902947
1762765987476112600,6702.100112548828,-4.421408329263329,-4.64681107584238,2.753184901924431
1762765992501425200,6707.125425048828,-7.684387796670198,1.151189558252692,4.651381160236895
1762765997526728000,6712.150728027344,2.895997335839271,-5.575302470299601,5.600691178578138
1762766002552016000,6717.17601586914,5.338797899469733,3.7710838878452777,1.8963497536629437
1762766007577293000,6722.20129296875,7.075252859252691,2.4456138674855232,-3.374077497152984
1762766012602574000,6727.226573974609,-2.157927098689973,4.0536119587033985,0.1387183969337027
1762766017630370000,6732.254370117187,-2.3624292421899735,-0.6481710627764463,3.4509611226081844
1762766022655676200,6737.279676269532,-5.091584303098917,-7.224726212361454,4.579668215417862
1762766027681002500,6742.305002441406,1.0533351870916785,2.0204776531130073,-2.838553739391267
1762766032706328800,6747.330328857422,5.124449630868434,1.6415034704566,-2.3672303588613866
1762766037731660500,6752.355660644531,0.6137871471375227,3.9988504409462218,1.1407170448813586
1762766042756995800,6757.3809958496095,-3.522393789181113,-2.507131289243698,1.4720363999806343
1762766047782336000,6762.4063359375,2.2861524965867397,2.947483192926645,2.5539313266023993
1762766052807673300,6767.431673339844,-4.370643187665939,-0.5505103144913911,0.192942200218141
1762766057833004300,6772.457004394531,-0.7787102905735374,2.6411680037677288,2.064688258500397
1762766062858337000,6777.482336914062,1.031626190239191,-0.8174351580262184,0.263523875984922
1762766067883670800,6782.507670898438,-5.848762268561124,-2.4735563519001005,1.040797484818846
1762766072908998400,6787.532998291015,0.1877063453912734,-0.6709177321135997,-0.8748078811950981
1762766077934311700,6792.558311767578,-10.49707673470378,3.399541901016235,-0.7074688357237726
1762766082959606500,6797.583606445312,-4.964771110087633,4.075421054929494,4.171853138202429
1762766087984889900,6802.608889892578,5.106314254719019,6.118837685081362,-5.412670360410213
1762766093010177000,6807.6341770019535,-8.261289859002828,-4.245408203756809,0.0788018071014434
1762766098035481000,6812.659481201172,0.5215630369484424,1.4197773665636777,-0.5942988220091909
1762766103061446400,6817.685446289062,-2.6712580216050146,1.3215654141366482,-0.0593722264230251
1762766108087447800,6822.711447753906,-5.843439612233638,5.551874832960963,5.261671989691258
1762766113112879000,6827.73687915039,-7.49663293596208,-6.9600137841790914,2.9622488003820178
1762766118138329000,6832.7623291015625,-0.7338672325015068,-2.1245015066891906,1.266194678439945
1762766123163782100,6837.787782226563,-0.3692728728532791,-3.536463815587759,1.2666121731996536
1762766128189233000,6842.813232910156,0.047503527719248,-0.0694651658922433,0.078198288250342
1762766133214674700,6847.838674804688,-3.29807649975121,1.9278496382981536,-1.539536257149279
1762766138240102400,6852.864102294922,-0.1413853602537885,-0.0536275452911853,-0.1353385178375989
1762766143265514200,6857.889514160156,0.045722471255064,-0.0142278473168611,-0.0244262929871678
1762766148290896100,6862.914896240234,0.1741150058796629,0.0641571226119995,-0.1055796316508203
1762766153316241200,6867.9402412109375,0.2492260321717709,0.1443944424092769,0.1721168543323874
1762766158341558000,6872.9655581054685,0.1048059438645839,-0.0073626377224922,-0.1091376163933426
1762766163366867000,6877.990866943359,-0.0584019200861454,-0.0290209273010492,0.0235659498307853
1762766168392171000,6883.016170898438,0.0951871247131377,-0.0179734635859727,-0.0079037588618695
1762766173417461200,6888.04146118164,-0.3016941052295267,1.4775532637059687,-0.9888770357064902
1762766178442731000,6893.066730957031,0.3055620327040553,-1.2892179727613926,0.7889403734911232
1762766183468002600,6898.092002441406,4.02002123926878,3.5873563829571005,-2.214644865081459
1762766188493283000,6903.117282958984,-6.18762363653779,5.032673848968744,3.703871469315886
1762766193518576600,6908.142576660156,1.4006374895468354,3.4352246242940425,-1.2940858710587024
1762766198543885300,6913.167885253906,3.588674479818344,1.6529986779391763,-0.034113044541981
1762766203569204500,6918.193204589844,2.5417636266857384,5.659852392598986,-3.5936671735391017
1762766208594521900,6923.218521972656,-8.456979604363442,5.619830178812146,6.531080515611172
1762766213619833300,6928.243833251953,0.4267722911417484,0.7642419124990701,3.404014370255172
1762766218645164800,6933.269164794922,-6.330084480535984,10.772736088836192,6.356060633313655
1762766223671157500,6938.295157470703,-0.2131114202827215,0.1770055031567811,-0.0974193772772327
1762766228696542700,6943.320542724609,1.3747458001822233,1.0075026795908808,-1.04316742882058
1762766233721940500,6948.345940429687,2.719074250268936,-0.803112618163228,-0.2295323937296867
1762766238747327000,6953.371326904296,8.9492686160326,5.495701694840193,-3.108683516447246
1762766243772689700,6958.396689697265,0.4363023360311985,2.8839678753495215,5.825335215744376
1762766248798011000,6963.422010986328,3.61684375872612,-0.6768634887754916,-0.8904450107879937
1762766253823291600,6968.447291748047,-5.8764130765527485,-5.650746710601449,2.4889281085550783
1762766258848532200,6973.472532226562,-0.6918482919394969,1.4455904377341269,-3.3887907898992298
1762766263873737700,6978.497737792969,6.47910599822402,5.117232539096475,-3.957104472106695
1762766268898905000,6983.522905029296,-3.896245514257252,4.342981858280301,-0.9140274002969264
1762766273924035300,6988.54803540039,0.5441168140619993,-1.1660218012034893,-1.3086042257547377
1762766278949139200,6993.573139160157,8.882340859663486,8.426752223882078,-5.853658808431029
1762766283974234400,6998.598234375,4.102860850518941,2.7791578398317096,-1.419694948977232
1762766288999318000,7003.623318115235,7.18396574742794,9.859813434910771,-5.964798631492257
1762766294024386000,7008.648385986328,2.2343974671691655,3.3982729039937256,-4.54208199660629
1762766299049431600,7013.673431640625,-3.242096253854036,-2.002266873639822,-0.5872977110754698
1762766304074454800,7018.698454833984,-7.615541054937243,-6.692091161778569,2.9763001220881935
1762766309099461600,7023.723461669922,1.647685958483815,4.319433224910497,-2.3785472871676085
1762766314133873200,7028.757873046875,1.0257862320393325,1.0796055005103349,0.2539234692730009
1762766319159492900,7033.783492919922,2.5363854407787323,0.5511749158799648,-4.070887503153085
1762766324184525800,7038.808525878906,0.8729016091823577,-2.0452783323705197,-1.1181683823343365
1762766329209597700,7043.83359765625,-5.458384648358821,-5.300318238949775,1.8926224037028847
1762766334234685400,7048.858685546875,4.007769075939059,1.9678578235596416,-1.250177901879698
1762766339259761200,7053.883761230469,3.46467692874968,2.787405735956132,6.669955902338027
1762766344289851100,7058.913851074219,-0.6115712246537208,-0.5130433381453157,0.9836502409689128
1762766349314952000,7063.938951904297,3.373932243463397,-2.6378303837776182,-0.4194961626589298
1762766354340095000,7068.964094970703,0.6946493208348751,0.3838631237417459,3.0228733649536967
1762766359365263600,7073.989263671875,-4.7834068271994585,3.98842724660933,3.072954908201098
1762766364390426400,7079.014426269531,3.3850185778841375,-4.465535055759549,-7.008896180769801
1762766369415561200,7084.039561279297,-1.7929414016366003,-5.748513257348537,0.3759145028248429
1762766374440657700,7089.064657714844,0.45286067212224,-1.9418167888522144,-0.4899730263443663
1762766379465719800,7094.089719726562,4.17356695638299,3.8504362415015696,-5.045322902661562
1762766384490746600,7099.114746582031,5.9144999383628365,-4.977866738504171,0.9451184118703008
1762766389515736300,7104.139736328125,-2.3187387151539323,4.715794595697522,0.3249412714347243
1762766394540686300,7109.164686279297,-3.553403259950876,-3.736067519521713,3.98423154848516
1762766399565608400,7114.1896083984375,-0.678067603868246,0.7377116329699754,-0.8057995191596448
1762766404596173000,7119.220173095703,0.6402256567299366,-0.996043712465465,-0.7998507668230682
1762766409621108500,7124.245108398438,-0.8859805787250399,5.170690573039651,-5.0833022124439475
1762766414646078500,7129.270078369141,-6.226328922507166,-5.242341850799322,0.9098591747015714
1762766419671053300,7134.295053222656,1.7812758060231804,0.9744885910004376,-0.9436256890945136
1762766424696001500,7139.320001464844,0.6225030991651117,1.4060662365972996,-1.0176086246721443
1762766429720919300,7144.344919189453,-5.093181216901541,-0.0972504139184951,0.5720400092542172
1762766434745805600,7149.369805664062,-8.538868783020973,-7.907778034383058,2.437649172216654
1762766439770681900,7154.394681884765,0.4371735659077763,6.520992252317071,-5.7513779991298914
1762766444795557400,7159.419557373047,-2.055721108190715,-2.2067413984805344,5.067303263801336
1762766449820418600,7164.444418457031,-5.546701814237236,-5.23992134565413,-0.5564442345850169
1762766454845260000,7169.469260009766,4.614141855166852,3.7450001830399033,-2.9723353101104495
1762766459870083300,7174.494083251953,-0.5449719695866108,-1.62759068043828,2.9576684868544336
1762766464894899500,7179.518899414063,-7.234838441053032,-9.158378399458527,2.9854642562747
1762766469924741400,7184.548741455078,0.584890138477087,-0.2169377005726099,-0.8192671226937324
1762766474950840600,7189.5748405761715,2.698576236641407,-1.7821897059977054,0.0630038609236478
1762766479975727600,7194.599727539063,-7.475926248019933,-5.085333426010608,2.1108137575984
1762766485000661000,7199.624660888672,-2.1508634439140555,-5.933108777242898,-1.1609719704680144
1762766490025617000,7204.649616943359,4.1030210095167154,4.494226312714815,-2.457796180449426
1762766495050590500,7209.674590576172,-1.8874208895370364,18.299506388908625,14.5749106959939
1762766500075582000,7214.69958203125,-7.937537212830781,-6.795625770533085,2.923184033450484
1762766505100582100,7219.72458203125,3.2515345288068054,6.565695317396521,-6.189853587546944
1762766510125590500,7224.749590576172,3.9037960757672785,0.3141460289150476,-2.308516450216621
1762766515150609000,7229.774608886719,-5.077784325805306,-4.480924348071217,0.3869689077373593
1762766520175636500,7234.7996364746095,5.761752678149938,-8.88546746725142,-3.4534491400316356
1762766525200668700,7239.8246687011715,2.1048015115715564,4.311003834739327,-4.359279497608542
1762766530230106400,7244.854106445313,-0.154150112748146,-1.6396563812851903,-0.3785910285577177
1762766535255771600,7249.879771728516,-1.0448394536860286,3.6181460734963418,-5.289426258057356
1762766540280821000,7254.904821044922,6.789186677396297,5.008506206917763,-2.831464950174093
1762766545305884700,7259.929884765625,-5.060962370342016,6.912883784213662,0.4376928040089085
1762766550330943500,7264.954943603516,-2.2361153770029545,-0.0987006127268076,-0.5352157512584701
1762766555355999200,7269.979999267578,-0.1864564914606511,0.0304980141162872,-1.1811908748932185
1762766560381054500,7275.00505444336,-2.7300992098912595,6.273659998002648,2.9002509016305207
1762766565406097200,7280.030097167969,0.3964033832978457,-1.8582424335867165,0.4533612420555203
1762766570431760400,7285.055760498047,-0.0541617982983589,0.7411313782855868,0.8547405140697956
1762766575457416000,7290.081416015625,-2.845713255757093,-0.0707440997868776,1.7212658662185072
1762766580482471700,7295.106471679687,9.289600641083716,9.409688909754156,3.7351042274475095
1762766585507550200,7300.131550292968,-0.717836281285435,9.603076223391296,5.231674326312541
1762766590532640300,7305.156640136719,-0.3376624770483002,-2.4406349100291727,-0.4442907775018364
1762766595557737200,7310.181737304688,-6.366404332673549,-5.313137973034381,1.930083388699591
1762766600582838000,7315.206838134765,2.0672887963876128,2.5908219643652437,-2.694377615907788
1762766605607941000,7320.231941162109,6.969800434178113,-2.324196980559826,0.2916620291020721
1762766610633046300,7325.257046386719,0.9712426678817718,3.3167245015978812,-1.821863106346875
1762766615658152000,7330.282151855468,1.455646552324295,5.156389660486578,-1.9306421916261312
1762766620683267800,7335.307267822265,-5.200947764137387,-5.3324365477442734,0.9059627517849208
1762766625708386000,7340.332385986328,0.2550608027398586,-2.1633950087070466,0.5509351888399571
1762766630733505500,7345.357505615234,-2.089210997599363,-7.399178523904085,1.6209075494125484
1762766635758617900,7350.382617919922,1.9620495756722989,2.5472312444418668,-2.7065315795600413
1762766640783714800,7355.40771484375,9.736707279723882,12.388102078473567,0.1925066035461612
1762766645808805600,7360.4328056640625,4.061372071310878,-0.1945399908035993,-0.5480286537434905
1762766650833895700,7365.457895751953,-0.5646311943024397,-5.670701703393459,1.587417513873428
1762766655858980600,7370.482980712891,5.167855057352781,4.3374826763421295,-3.0244620954498647
1762766660884050400,7375.50805053711,1.2918021440356968,-4.486546864128113,-0.4216063232133165
1762766665909101300,7380.53310131836,2.2269320997245607,-0.2802379140943288,-0.2873846440438181
1762766670934135300,7385.558135253907,-5.231201448103786,-3.7696728520035743,0.3435168656323105
1762766675959157200,7390.583157226562,3.5473370917797085,6.890830357837676,-4.311520259828865
1762766680984171000,7395.608170898437,0.5314779895022511,7.220804070481657,2.5874671009793877
1762766686009174300,7400.633174316406,-3.0896517759799957,-0.5914186634629964,-0.8887019665129482
1762766691034168300,7405.658168212891,-2.471535367466509,3.173174693319201,1.150942378558591
1762766696059159600,7410.683159667968,2.1236111337207255,1.280115797895193,0.8424941228937357
1762766701084159000,7415.708158935547,-6.7120905782341955,6.650329995369911,0.3467093415306881
1762766706109168400,7420.733168457031,4.716538692063093,18.21696839095354,6.55027329185903
1762766711134190300,7425.758190429688,4.556828022578358,3.073184625303745,-5.517895990991592
1762766716159243500,7430.783243408203,-4.046337583786249,-4.657848602685332,-0.2409566183352842
1762766721184332500,7435.808332519531,6.099785194087028,5.227430112871527,0.233851462505199
1762766726209427500,7440.833427490235,-0.9807771697506308,-2.6333161212235687,-0.7654854097541421
1762766731234515500,7445.858515380859,2.6566473124504086,-2.2139695961683987,-0.014713365811482
1762766736259594500,7450.883594482422,-5.539626176762581,-3.7832957191646095,0.3226508224099874
1762766741284669000,7455.908668945312,-2.6810253823816774,1.1656021144866944,-0.1493219984719529
1762766746309739500,7460.933739501953,11.078105521577596,4.899548404070734,8.56492969147265
1762766751334815700,7465.958815673828,1.3026140454292296,3.264092981606722,-4.505294234696031
1762766756359900700,7470.983900634766,-1.2144330731511117,0.1895154406398534,-0.7121888499829918
1762766761384988700,7476.008988769531,-6.529453206670284,4.263508508592844,5.080712780472636
1762766766410072300,7481.034072265625,-0.2491448566943407,-1.8639058661758896,0.9549636601887644
1762766771435157800,7486.059157714843,-3.4078187309741974,-2.548162972334027,0.7569193145260215
1762766776460246800,7491.084246826172,-2.3446458943486213,0.8395055355370045,1.2743864604629576
1762766781485324300,7496.10932421875,-0.5167851550221443,0.0540875640183687,-0.1349001994855702
1762766786510392000,7501.1343920898435,3.016587708812952,5.312038487359881,2.8283275289312004
1762766791535454500,7506.159454345703,0.2677206700876355,0.3933008141726255,0.4125834606610238
1762766796560511700,7511.18451171875,1.2371195367336272,0.0259264684170484,-1.5447202356584369
1762766801585573400,7516.209573486328,0.1170959549866616,-0.0231955821484327,0.5217659391093998
1762766806610617600,7521.234617675781,2.196856548804045,0.8805144222736359,1.1123077466726303
1762766811637517800,7526.261517822266,0.2181184347897768,-0.2491594697415828,-0.1692164932483807
1762766826712773000,7541.33677319336,0.0142722709804773,-0.0055141237789765,-0.0101773846159689
1762766846813122600,7561.437122558594,0.0090039751887321,-0.0008486161859706,0.008350835909089
1762766866912866800,7581.536866699219,0.0069213236957788,-0.007325155256316,-0.0131079307756852
1762766871937728800,7586.561728759765,0.0029921675533056,0.0015116169892135,0.0207421040321118
1762766876962568000,7591.586567871093,0.1324281102836132,-0.0767735983426217,-0.0146205352872319
1762766887012186400,7601.636186279296,-0.0053887073010206,0.0069906723089196,-0.0061436412960814
1762766907111157200,7621.735157226563,0.0071387658387422,0.0019525337237049,0.0010975562956067
1762766927209884200,7641.833884277344,0.0202829095721244,0.0031139467524713,0.0025735391407913
1762766932235792100,7646.859792236328,0.0071381813168525,0.0283410552781075,-0.0532491404328495
1762766947309882400,7661.933882324219,0.0225163677126169,0.0007470189750194,0.0055917281929869
1762766967408590300,7682.032590332031,0.0043529345124959,0.0069807987980544,-0.0051572640321683
1762766987506853000,7702.130853027344,0.0143693016141653,0.0098735245648771,-0.0240226897554937
1762767007604802300,7722.228802246093,0.0307066884309053,-0.0108916155662387,0.0022091548162978
1762767027702516500,7742.326516601563,0.0040939913153648,-0.0050338294487446,0.0192091793933883
1762767047803833600,7762.427833496094,-0.0009971943438053,0.0147261522278189,-0.011664919759985
1762767052828228400,7767.452228271484,0.5744090764731168,0.311780468827486,0.3647741001293063
1762767057852663800,7772.476663818359,0.1528437063246965,0.0129594348162412,-0.0484495581313967
1762767062878436600,7777.502436523438,-0.0083463880628347,-0.0149766198575496,0.0281830151721835
1762767067902992400,7782.526992431641,-0.1624883175045251,-0.2263186923801899,0.1513476225480437
1762767088001466600,7802.625466552734,0.0120481651902198,0.0046882308814674,0.003437472768547
1762767108099651300,7822.723651367188,0.0040291093856096,0.0016519319254904,-0.0192115722798742
1762767128197407500,7842.821407470703,0.0217120655924081,0.0238261351369321,-0.0029670422452036
1762767148294896600,7862.918896728515,0.0077069211155176,0.0051939153812825,0.0012732987382914
1762767168392195300,7883.0161953125,0.0036538463324308,0.0020658464886248,-0.0054113483910914
1762767188489364000,7903.113364013672,0.0119464583814144,0.0077520023662596,-0.002987628375506
1762767208586408700,7923.210408691406,0.0140998370230197,0.006491992367804,-0.0010067841560579
1762767228683390200,7943.307390136719,0.0114595516473054,0.0100721889421343,0.0063450673109386
1762767248780287000,7963.404286865234,0.0065565820366144,0.0087972736354917,0.0001341569068375
1762767268877126000,7983.501125976562,0.0160655841380357,0.0020366203941404,-0.0079790891204029
1762767288973911600,8003.597911621094,0.0098696521073579,-0.014799655855447,-0.008367978840135
1762767309070648000,8023.694647949219,0.001586976930499,0.0009729366853833,0.0051649998140521
1762767329167411200,8043.791411132813,0.0370937591195106,-0.0049183133102953,0.0055541452621109
1762767339215773700,8053.83977368164,0.0390074837863445,-0.007235723407194,-0.0037497079223394
1762767349264093200,8063.8880932617185,0.0054208560049533,-0.0019436083484441,0.0013945230983197
1762767369360633900,8083.984633789062,0.008295534658432,0.0100096450999379,-0.0237702402312308
1762767389457082600,8104.081082519531,0.0141577046900987,0.0196229843586683,-0.0036865612919442
1762767409553473000,8124.177473144531,0.0291845934301614,-0.0115059480722993,0.0028287845519836
1762767429649802800,8144.273802734375,0.0422118327856063,0.0035779315520077,0.0050189332737121
1762767434673874400,8149.297874511719,0.0153384389072656,0.0142672294791787,-0.008702590222517
1762767449746063000,8164.3700629882815,0.0180371764719486,0.0033114626355469,-0.006184068062948
1762767469842267400,8184.466267333984,0.0189870245426893,0.0101717037938535,0.0064236124398652
1762767484914389500,8199.538389404297,0.0110287590146064,0.0087732351727783,-0.0149953473909059
1762767489938427400,8204.562427490235,0.0004980126500129,0.0111146837323904,-0.0139578073369804
1762767494962461200,8209.586461181641,0.017422843965888,-0.0014000760562717,-0.0156927139713428
1762767510034539800,8224.658539794922,0.1098661498636007,0.0468656499408185,-0.0421129481215495
1762767530130609000,8244.754608886718,0.0025981997996568,0.0106902477752417,0.0009889745047315
1762767545202633200,8259.826633300781,-0.0491162053465843,0.0153472798008471,-0.0138920577575452
1762767550226634500,8264.850634521485,0.0182429281771183,0.0140369278546422,0.000166716602724
1762767570322612700,8284.946612792968,0.0320049115478992,0.0126095984652638,-0.0028378537744283
1762767590418543600,8305.042543701173,0.0264373405486345,-0.0265927503060549,0.000596901880647
1762767610514435800,8325.138435791016,0.0123550391823053,0.0046134120795875,0.001929483924969
1762767630610287400,8345.234287353516,0.0235685071140527,0.0115533674106001,-0.0046289567085914
1762767650706108200,8365.330108154298,0.0148649761766195,-0.0083334555160254,0.0047871612112969
1762767665777953000,8380.401953125,0.0105815997689962,-0.006598740677908,-0.0032016821181401
1762767670801896400,8385.425896484376,0.0380044442236423,-0.0036259354121983,0.0115755883755628
1762767690897668600,8405.521668701173,0.0349187531679868,-0.0117486707869917,0.0121142252969089
1762767710993412600,8425.617412597656,0.0224532393485307,0.0026403584409505,0.0033743900702334
1762767721041287400,8435.665287353515,0.1277694708228111,0.1980938108276575,0.2662515291168354
1762767731089147400,8445.713147460938,0.0113800566703081,-0.0422794911943376,-0.0116905199921224
1762767751184823800,8465.80882373047,0.0063104983210563,0.0021793898656964,-0.0131161460481816
1762767771280450300,8485.904450195312,0.0244604875177145,0.0136040163300931,0.0003010424729203
1762767791376047900,8506.000047851563,0.0189887781083583,0.007109247483313,0.0053286476768553
1762767811471612200,8526.095612060546,0.0183195005446672,0.0024066958155483,-0.0103270039534196
1762767831567140000,8546.191140136718,0.0079687869220972,0.006611892420426,-0.00454703231249
1762767851662667500,8566.286667480468,0.0162146372199058,0.0102920422378927,-0.0100093939381884
1762767871758147300,8586.382147216797,0.0266729028701782,0.0010704057104885,0.006372092315182
1762767891853582000,8606.47758203125,0.014742811101675,0.0079869071006774,-0.0089463952160207
1762767911948989700,8626.572989746093,0.0375812503755092,-0.0137307845149189,0.0162839167635655
1762767932044434400,8646.668434326171,0.0365957464694976,-0.0090040482539683,-0.0014812743665883
1762767952139859500,8666.763859375,0.0166495215058326,0.0089265991035848,0.0075094623146578
1762767972235240200,8686.859240234375,0.0237450327247381,0.0047999476276338,-0.0118020723415073
1762767992330581000,8706.954581054688,0.0179793088048696,-0.0097802933234721,0.0123386451699305
1762768002378236000,8717.002235839844,0.0020773907959461,-0.0054108460675925,-0.0141900634565856
1762768012425886500,8727.04988647461,0.0219604873955249,0.005723638343811,-0.002996825462114
1762768032521168600,8747.145168701172,0.0148187989473342,-0.0045486032150685,-0.0152205344489077
1762768037544984000,8752.16898413086,0.0159989486426115,0.048506841276586,-0.0338483794235391
1762768042568798000,8757.192797851563,0.0182002580791711,-0.0197618813727051,-0.0150297108848113
1762768047592608800,8762.216608886718,0.0346440278798341,-0.0095245649967342,-0.001368379443488
1762768052616418300,8767.24041821289,0.0338081615775823,-0.0091441143117845,-0.0080881800846429
1762768057640225500,8772.264225585937,0.0187877025783061,-0.0039195845965296,0.0026454273417126
1762768062664031200,8777.28803125,0.0423404276013374,0.016267024994269,0.0165823151882505
1762768067687833900,8782.311833740234,0.1261965224176645,-0.0007968494661152,-0.0034232433137949
1762768072711635200,8787.335635253907,0.0385918887227773,-0.0051070408154278,-0.0079534066898748
1762768077735438000,8792.359437988282,0.0303600669503211,-0.0118801151469349,-0.0214267093123868
1762768092806844400,8807.430844482422,0.0096872812777757,0.0003686141166836,-0.0054380035025766
1762768107878232600,8822.502232666016,0.0391214655548334,0.0172695531003177,-0.0014738810779992
1762768112902024700,8827.526024658204,0.0309071794390678,-0.0022222060941159,-0.0007077190110925
1762768122949600800,8837.573600830077,0.0228822784155607,-0.0395789269987493,0.0133265556621598
1762768132997182200,8847.621182128907,0.0161883337348699,0.0086328037887811,0.0047500714707653
1762768153092376300,8867.716376220704,0.0241290636062622,0.0050236733809113,-0.0014685381826013
1762768168163911000,8882.787910888672,0.018793547797203,0.0074709204025566,-0.0126791017712093
1762768173187757800,8887.8117578125,0.0298854351758956,-0.0083009414859116,0.0007920819594524
1762768193283059700,8907.907059814454,0.0249888953059911,-0.0023038930281996,0.0184141702579101
1762768213378265600,8928.002265625,0.0231780464917421,0.0133813865553587,-0.0172082696334458
1762768233473408300,8948.097408203124,0.0129693716883659,0.0073581076778471,0.0124731674029491
1762768238497186000,8953.121186035156,-0.0398959570586681,0.0507182337157428,-0.0193238187490031
1762768253568507000,8968.192506835938,0.0279132583200931,-0.0067181292738765,-0.012029862348549
1762768273663581200,8988.287581298828,0.0257972890794277,0.001977218357101,-0.0034165578446816
1762768278687348700,8993.311348632813,0.052796355164051,-0.0467966763578355,-0.0276758830673759
1762768293758650600,9008.382650634763,0.0274982477784156,-0.0082422701012343,0.0123821144188987
1762768313853685500,9028.477685546875,0.0123942021489143,-0.00336385040991,-0.0250480553144356
1762768333948713500,9048.572713378906,0.0141173726797103,0.0015048516049981,-0.0017379251419333
1762768354043851300,9068.66785131836,0.0178477913796901,-0.0019693273115903,0.0042232117521809
1762768374138938000,9088.76293823242,0.0193353995889425,0.0119483580775558,0.0014985131957568
1762768384186459600,9098.810459716797,0.0636854134470224,-0.0604853022314608,-0.0081414948741905
1762768394233965800,9108.857965820313,0.0147562551051378,0.0121462187372148,-0.0145980734353186
1762768414328950500,9128.952950439452,0.012208324187994,-0.0014251374322921,-0.0135048074390506
1762768434423903000,9149.047903076173,0.0181529118061065,0.0103100162860006,-0.0055921894172905
1762768454518845400,9169.142845458984,0.0237000245392322,0.0087241353340446,-0.0130325731176882
1762768474613769500,9189.23776953125,0.0234130242913961,-0.012639482146874,-0.0027702684309333
1762768494708672500,9209.33267260742,0.0107592944234609,0.0062565761767327,0.004040361431986
1762768509779883800,9224.403883789062,0.0055792614370584,0.0047950522568076,-0.0191170623968355
1762768514803647700,9229.42764770508,0.0231289466530084,0.0033822628494352,-0.0088779924551956
1762768529874914000,9244.4989140625,0.0089957918822765,0.0041309623248875,-0.0016663166438695
1762768534898657300,9249.522657226562,0.024065935242176,0.0112452513094991,-0.0001953764416277
1762768539922395400,9254.546395507812,0.0198842656433582,0.0128785515997558,0.0083096316824434
1762768544946129200,9259.57012915039,-0.0157850136309862,0.0496237895425409,-0.0680417089603841
1762768554993589000,9269.617589111327,0.0313198518931865,0.0093195439439266,-0.0013207865752512
1762768565041040000,9279.665039794922,-0.0236035784274339,0.5949888500999659,-0.818713872725144
1762768575088483600,9289.712483642576,0.0170540106534957,0.0024532383710145,0.0015533988878829
1762768595183351300,9309.80735131836,0.0210018714964389,0.0115254564903676,9.25005890429e-05
1762768615278195700,9329.902195800782,0.0166986213445663,0.0037646132305264,-0.0094537556496914
1762768635373029600,9349.997029541017,0.0137479548454284,-0.000429769719392,-0.0084391489467816
1762768655467842600,9370.091842529297,0.0109767365664243,0.0107417587667703,0.0093706713429652
1762768675562638800,9390.186638916017,0.0261123463779687,0.0071072016566991,-0.0011157472561346
1762768695657427700,9410.281427734377,0.0079693714439868,-0.0018725158736109,-0.0032122902771225
1762768715752205800,9430.376205810548,0.0219745159208774,0.0005788958664983,-0.0054179836278548
1762768735846975500,9450.470975585937,0.0169499657571315,0.0192746093124151,0.0102309231678023
1762768755941743400,9470.565743408202,0.0141968676567077,0.0070217883955687,0.0028015768846496
1762768776036507100,9490.660507080078,0.0064963762819767,0.0041969402331858,-0.0010543359250994
1762768796131260700,9510.755260742188,0.0245662859797477,-0.0002261369060724,-0.0062288342198589
1762768816226009600,9530.850009521484,0.0228904617220163,0.0068633829634636,-0.0011141626538243
1762768836320749800,9550.94474975586,0.0183849669963121,0.0002330050382763,0.005471430848143
1762768856415479800,9571.039479736328,0.0206248548775911,-0.0062755731381475,-0.0050366424603387
1762768876510204200,9591.134204101563,0.014977788901329,0.0103686146054416,-0.0006250776623608
1762768896604921300,9611.22892138672,0.021365444111824,0.0067968205332756,-0.0079478811313863
1762768916699634400,9631.323634521485,0.0145306296557188,0.0103741675633937,-0.004811213373742
1762768936794338800,9651.418338867188,0.0105237321019172,-0.0080853259738534,0.0081985359907848
1762768946841682200,9661.465682128906,0.0162158062636852,-0.0066346887741237,0.0015112265468575
1762768951865353500,9666.489353515624,0.0626858810156583,-0.003036664282158,0.017839251880208
1762768956889022000,9671.513021972656,0.0317938991457223,0.0020433423958718,-0.0592984853333793
1762768966936358400,9681.560358398438,0.0319260010927915,0.0026597937937825,-0.0065865159505745
1762768976983694000,9691.607694091796,-0.0924433058977127,0.0166954795394092,-0.015099355754652
1762768997078367200,9711.7023671875,0.0140928227603435,0.0115116471607238,0.0018335492698242
1762769007125698300,9721.749698242187,0.0232300689399242,0.0036826340354979,0.0100109420078806
1762769017173026000,9731.797026123048,0.0332014278560876,0.0010704787757247,0.0051549670438049
1762769037267673900,9751.891673828124,0.0220621942043304,0.0030881752736866,0.007571307470533
1762769042291338500,9756.915338378907,0.0196335057526826,3.48521176725e-05,0.0002501068701269
1762769047315001900,9761.939001953126,0.0019797756403684,0.0040517596088349,0.0132558467798167
1762769057362327600,9771.98632763672,-0.0028927988320589,0.0245136059444397,0.020226284014061
1762769077456983800,9792.08098388672,0.0248375041365623,-0.0070193041775375,-4.2218006798e-05
1762769097551618800,9812.175618896485,0.0227332253336906,0.0071377429254353,-0.0008642475799424
1762769117646253000,9832.270253173829,0.0400415030092,-0.0176428433921188,-0.0163495476119918
1762769137740873000,9852.364873046876,0.0328127207994461,0.0029614070888608,-0.0023893062893301
1762769157835483100,9872.459483154296,0.0367547364234924,-0.0164246267087757,-0.0049478910312289
1762769177930094800,9892.554094726562,-0.0607166267693042,0.0569525249954313,0.0198748630607733
1762769182953766400,9897.577766357424,0.0517898084700107,-0.0006188625507056,0.0375036368283443
1762769198024810200,9912.648810302737,0.0102840781271457,-0.0032457769881933,-0.0068995959211606
1762769218119483100,9932.743483154296,0.0168944361776113,-0.0036802228827029,-0.0065807803295319
1762769238214131000,9952.838130859374,0.0098889413297176,0.0110753015700727,-0.000237841043598
1762769258308746000,9972.93274609375,0.0161719671219587,-0.0022268092039972,0.0091254096113145
1762769273379691500,9988.00369140625,-0.0127139356225728,0.0396728158272802,-0.0382715889935381
1762769278403339300,9993.027339355467,0.0059364043116569,-0.0114081867862492,8.75641190214e-05
1762769298497924000,10013.121924072266,0.0236637841820716,0.0062306380178779,-0.0082469554095063
1762769318592491000,10033.216490966795,0.0152916771560907,-0.0103205376800149,-0.0085418741023167
1762769338687042600,10053.311042480467,0.013530512702465,0.0045235418390482,-0.0061572485546814
1762769343710680600,10058.334680664062,0.0044715924561023,0.0126430623434484,-0.0092192253746092
1762769358781592800,10073.405592773435,0.0268032512515783,0.0109970487020909,0.011173222686327
1762769378876176400,10093.500176269532,0.0159440035849809,0.0163044343952089,-0.0107162087669828
1762769398970822100,10113.594822265624,0.0468219569295644,-0.0025295184776186,0.0109469761824002
1762769409018130200,10123.642130126953,0.024974282258749,-0.0324316855926066,0.0495093465497484
1762769419065423400,10133.689423339843,0.0239426011234521,0.0079422642413526,0.003329701545136
1762769439159994400,10153.783994384765,0.0335556481212377,0.0013352671917527,-0.0115558561952086
1762769449207277000,10163.831277099607,0.0242938987791538,0.0005718085385859,0.0099352098905481
1762769459254553600,10173.878553710938,0.0433820456087589,-0.0032703269075602,0.0121617679327959
1762769469301828400,10183.925828369142,0.0167921448469162,0.0089534140452742,-0.0208073718376457
1762769479349097000,10193.973096923828,0.0429091674000024,0.0043298458978533,-0.0107026734319748
1762769499443639000,10214.067639160156,0.0135422031402587,0.0060758127823472,0.004731133874855
1762769519538188000,10234.16218798828,0.0976040496617555,0.1040847899831831,-0.0922598025569692
1762769539632738800,10254.25673876953,0.0247141700178384,0.0062130292959511,0.005856553141633
1762769559727268000,10274.351268066406,0.0294891293346881,-0.0008976064268499,-0.0019728664089692
1762769579821792800,10294.44579272461,0.0123620534449815,-0.0087863138500601,-0.0029813858643872
1762769584845424400,10299.469424316409,0.00973521207273,0.0140944301955401,0.0087861585864331
1762769599916320800,10314.54032080078,0.0280798470586538,0.0083195000559091,-0.0012040374609408
1762769620010843600,10334.63484375,0.0005225625693798,0.0115150081615895,0.0166315885569201
1762769640105354000,10354.729354003906,0.0331885683745145,0.0015330547861754,-0.0053382877214578
1762769660199868200,10374.823868164063,0.0098778354138135,-0.0094233696445822,-0.005313737802091
1762769680294373400,10394.918373291017,0.0480482838541269,0.0823988086801022,0.0017745216921204
1762769695365244000,10409.989243896483,0.1084492688030004,0.0096394235480576,0.0364891123238252
1762769700388869000,10415.012869140624,0.0158101480722427,-0.0026155162606388,-0.0021975237440085
1762769710436118800,10425.060118896485,0.1246101300090551,-0.0074511197235435,-0.0258531611522426
1762769720483370200,10435.107370361327,0.0310083017259836,0.0044561026260256,-0.0009747039507841
1762769740577870600,10455.20187060547,0.0081570029705762,0.0080669135343283,-0.007001197698689
1762769760672362000,10475.296362060546,0.0200800804764032,0.0134697224259376,-0.0015752773595508
1762769780766857000,10495.390856933594,-0.0511386510848999,-0.0101380207199603,0.0165439970384351
1762769785790482200,10500.414482177734,0.0109796591758728,0.006021013855189,-0.0092322492529638
1762769800861356300,10515.485356201172,0.0070335518985986,-0.0011294424213469,-0.0150527538336813
1762769805884979500,10520.508979492188,-0.0241840086638927,-0.0312373612415045,0.0566104244263377
1762769810908607000,10525.532606933592,0.0215256031095981,0.0079814272079616,0.0089775347063783
1762769820955863800,10535.579863769532,0.0361105933010578,0.0033675036717206,0.0175055720795877
1762769841050369800,10555.674369873046,0.0326882176369428,0.0003689063776284,0.0150730340033071
1762769861144871700,10575.768871582031,0.0140793787568807,0.0070255147226154,-0.0118029856569599
1762769876215750100,10590.83975024414,0.1023036056548356,-0.0229226834911853,0.026987955602142
1762769881239376100,10595.863376220705,0.0200970316112041,-0.010855667470023,0.0103178433994296
1762769901333876700,10615.957876708984,0.0149853876858949,-0.006277107508108,-0.0059388565636472
1762769921428368100,10636.052368164062,0.0335357743769884,0.001948430654034,0.0023994486574316
1762769941522850600,10656.146850585938,0.0260942261993885,-0.0251245043843984,0.007424112985609
1762769951570092800,10666.194092773438,-0.0623491964071989,0.0084476564802229,0.0152677619909634
1762769961617332000,10676.24133203125,0.0226432089626789,0.0123025783427059,-0.0045992556900717
1762769981711810800,10696.335810791015,0.0141594582557678,0.001362739720568,0.0007309035238577
1762770001806300400,10716.43030053711,0.0124175830245018,-0.0027380466617643,-0.0025582787812221
1762770011853545200,10726.477545166015,0.0106201782137155,-0.013471256795898,0.0032460235833656
1762770016877165800,10731.501165771484,0.0224047240316867,0.0167857151061296,-0.0044341830551624
1762770021900785700,10736.524785644531,4.26700979471e-05,0.0003856383167207,-0.0136761819505831
1762770026924406800,10741.54840673828,0.0257844295978546,0.0222762753464281,0.0064487560142762
1762770041995271700,10756.619271728516,0.0343903453797102,-0.2049267255876213,-0.055581574568944
1762770047018895000,10761.642895019531,-0.02413315525949,0.3064139733582735,0.0156086158844642
1762770052042517500,10766.666517578124,0.0194072957813739,-0.0129304279174655,-0.0105156264272751
1762770057066138600,10771.690138671876,0.0511485879570245,-0.1499159823097288,0.0247913680064724
1762770062089761000,10776.713760986328,0.0214402629137039,0.0041949674718081,0.0162115913128713
1762770082184244500,10796.808244384763,0.0182148711264133,-0.0029403643008321,-0.0199683363307733
1762770102278727200,10816.90272705078,0.0061117608785629,-0.0003874649476259,-0.0131687301853671
1762770122373221400,10836.997221435548,0.0020750527083873,-0.0027699031047523,0.0222058130592573
1762770142467711000,10857.0917109375,0.0317395386099815,0.0069402475919574,-0.0044364800435258
1762770152514952700,10867.138952636718,0.0306593421578407,0.0135972212631255,0.0040169668566668
1762770162562190300,10877.186190429687,0.0223754979372024,-0.007505699454993,0.0052222920923959
1762770167585810200,10882.209810058594,0.0247901578634977,-0.0143852298356592,-0.0007080523712327
1762770182656671700,10897.28067163086,0.0172919110625982,-0.005437734074518,-0.0048657337396871
1762770187680311600,10902.304311523438,-0.0536427428603172,0.1491102188847959,0.0664692628787364
1762770202751294700,10917.375294677737,0.0190711956948041,0.0069252692185342,-0.0183885197934228
1762770222845893000,10937.469893066404,-0.0448866049528121,-0.0407542543884366,0.2743356312479824
1762770242940443400,10957.564443359375,0.0150455934405326,0.0103824970003217,0.003778783319774
1762770258011339000,10972.635339111328,0.0251911398798227,0.0128253601077944,0.009015651926794
1762770263034968300,10977.65896826172,0.0374158306807279,0.004611147057265,0.0040935940231429
1762770283129475600,10997.753475585938,0.0317711027920246,0.0037370676364749,0.0063446837184485
1762770303223975200,11017.847975097657,0.0135071318268775,0.0127093325126916,-0.0173097755128517
1762770318294846500,11032.918846435548,0.017051672565937,0.0076836863704025,-0.0082364066160283
1762770323318469600,11037.942469726562,0.0160591543972492,0.007997136233747,0.0045991643585264
1762770343412961800,11058.036961914062,0.0281359611600637,-0.0062776189647614,-0.0067930439738789
1762770363507460000,11078.13146020508,0.0354044908583164,0.0043059535656124,0.0047714316359139
1762770368531085600,11083.155085449218,-0.0799158327579498,0.0205566850122064,-0.0231192152768606
1762770383601955800,11098.225955810549,0.0097346275508403,0.0083954879015684,-0.0030824145364691
1762770403696835800,11118.3208359375,0.0140776251912116,0.013724939296022,-0.0032133131904294
1762770423791715300,11138.415715332032,0.0271773452609777,-0.0035481209356337,0.0057123588979709
